rtcDate,rtcTime,aX,aY,aZ,gX,gY,gZ,mX,mY,mZ,imu_degC,output_Hz,
01/01/2000,00:01:04.63,-31.74,6.84,1026.86,-0.55,1.22,0.18,-10.20,10.20,20.40,29.95,333.33,
01/01/2000,00:01:04.63,-52.73,21.48,1007.32,-4.15,-3.48,-5.00,-12.15,12.00,19.80,29.66,34.48,
01/01/2000,00:01:04.63,-24.90,-11.72,1021.00,-0.37,-0.30,-2.38,-12.00,10.65,21.75,29.80,38.46,
01/01/2000,00:01:04.63,-33.69,10.74,1031.25,1.10,2.87,1.77,-10.50,12.15,18.90,29.61,40.82,
01/01/2000,00:01:04.63,-41.50,10.25,1013.67,0.49,1.65,-4.76,-12.15,11.55,19.80,29.80,42.37,
01/01/2000,00:01:04.63,-36.13,3.91,1022.46,2.62,3.23,-2.20,-10.05,11.25,19.50,29.56,43.48,
01/01/2000,00:01:04.63,-43.46,8.79,1028.81,-0.24,0.91,-2.99,-11.85,11.25,20.85,29.61,44.30,
01/01/2000,00:01:04.63,-22.46,8.30,1012.70,-0.73,-0.18,-1.46,-10.50,11.40,20.40,29.61,44.94,
01/01/2000,00:01:04.63,-29.79,16.60,989.26,-2.13,-4.02,-4.27,-10.20,10.95,20.40,29.66,45.45,
01/01/2000,00:01:04.63,-16.11,4.39,995.12,-1.16,-1.34,-2.44,-10.80,11.25,18.30,29.80,45.87,
01/01/2000,00:01:04.63,-16.11,0.49,1003.42,0.30,-0.91,-4.45,-10.80,11.55,19.50,29.66,46.22,
01/01/2000,00:01:04.63,-34.18,9.28,1046.39,-0.73,-1.40,-1.46,-12.45,10.95,21.45,29.61,46.51,
01/01/2000,00:01:04.63,-24.41,18.55,1039.06,-0.73,-1.65,0.67,-11.55,11.55,19.05,29.47,46.76,
01/01/2000,00:01:04.63,-12.21,5.37,1032.71,-0.43,-1.40,2.13,-10.95,11.40,19.95,29.61,46.98,
01/01/2000,00:01:04.63,-45.90,16.11,1027.34,-4.21,0.24,-2.01,-11.10,11.25,20.55,29.80,47.17,
01/01/2000,00:01:04.63,-27.34,5.37,988.28,-1.65,-3.41,-5.18,-11.55,12.75,20.10,29.95,47.34,
01/01/2000,00:01:04.63,-4.39,14.16,992.19,-1.40,4.15,-2.74,-10.50,11.85,19.20,29.80,47.49,
01/01/2000,00:01:04.63,-34.18,15.62,1039.06,-1.52,-0.49,-1.71,-11.85,12.00,18.75,29.90,47.62,
01/01/2000,00:01:04.63,-21.97,2.44,1002.44,-3.17,-1.28,-2.20,-11.85,12.45,19.80,29.90,47.74,
01/01/2000,00:01:04.63,-10.74,18.55,1000.98,-0.37,-0.98,0.73,-11.25,12.60,18.90,29.56,47.85,
01/01/2000,00:01:04.63,-24.90,31.74,988.77,-0.18,0.98,2.44,-11.10,12.00,18.30,29.99,47.95,
01/01/2000,00:01:04.63,-58.59,48.34,1012.70,0.98,0.24,2.13,-11.10,11.55,20.10,29.80,48.03,
01/01/2000,00:01:04.63,-72.27,59.08,1022.46,-2.56,-4.02,-0.12,-10.50,10.20,19.95,29.80,48.12,
01/01/2000,00:01:04.63,-60.06,54.20,1024.41,-1.34,-8.54,-0.55,-13.35,11.25,20.10,29.80,48.19,
01/01/2000,00:01:04.63,-45.90,44.92,1029.30,1.59,-2.26,1.22,-12.45,11.85,20.70,29.56,48.26,
01/01/2000,00:01:04.63,-106.45,75.68,979.00,3.17,0.73,4.51,-12.60,10.80,20.10,29.80,47.02,
01/01/2000,00:01:04.63,-110.35,73.73,998.54,8.11,2.44,1.95,-11.70,10.65,20.70,29.80,47.12,
01/01/2000,00:01:04.63,-119.63,68.36,1012.70,7.50,-0.43,0.18,-11.85,10.50,20.85,29.80,47.22,
01/01/2000,00:01:04.63,-111.33,55.66,1021.00,5.61,-0.30,-4.15,-10.80,11.55,19.50,29.75,47.31,
01/01/2000,00:01:04.63,-131.84,32.23,1015.62,6.65,-2.50,-4.70,-11.85,12.00,20.55,29.66,47.39,
01/01/2000,00:01:04.63,-109.86,2.44,999.51,6.89,-6.71,-2.80,-10.50,12.60,17.70,29.66,47.47,
01/01/2000,00:01:04.63,-92.77,-2.44,955.08,6.95,-3.72,-0.37,-10.80,11.25,19.80,29.56,47.55,
01/01/2000,00:01:04.63,-72.75,-1.46,967.77,12.99,-3.48,-3.54,-11.85,12.00,19.05,29.99,47.62,
01/01/2000,00:01:04.63,-96.68,-31.25,993.16,12.68,-8.72,1.10,-10.95,12.00,19.05,29.80,47.69,
01/01/2000,00:01:04.63,-90.82,-37.11,1001.46,11.10,-13.17,2.38,-12.45,12.90,20.70,29.47,47.75,
01/01/2000,00:01:04.63,-61.52,-39.55,1041.50,9.27,-8.17,0.37,-11.85,12.00,18.75,29.95,47.81,
01/01/2000,00:01:04.63,-111.33,-20.02,1030.27,5.91,-16.40,-1.89,-11.85,11.55,19.80,29.80,47.87,
01/01/2000,00:01:04.63,-120.61,4.88,1017.09,6.52,-18.72,0.37,-12.60,14.25,19.05,29.75,47.92,
01/01/2000,00:01:04.63,-112.79,-16.11,1034.18,4.63,-10.00,2.44,-11.85,12.00,19.50,29.90,47.97,
01/01/2000,00:01:04.63,-120.61,-30.76,1079.10,9.27,-4.33,3.90,-13.35,13.20,19.05,29.80,48.02,
01/01/2000,00:01:04.63,-169.43,6.84,1083.01,2.01,-1.77,2.68,-12.60,11.25,19.05,29.61,48.07,
01/01/2000,00:01:04.63,-156.74,9.28,1052.25,0.00,-9.02,1.46,-12.45,11.40,18.15,29.61,48.11,
01/01/2000,00:01:04.63,-162.11,6.35,983.40,-6.16,-6.10,5.55,-12.75,12.90,17.70,29.75,48.15,
01/01/2000,00:01:04.63,-157.71,26.86,1004.88,1.16,-1.52,3.90,-13.65,10.50,18.75,29.80,48.19,
01/01/2000,00:01:04.63,-173.34,6.35,959.47,-2.74,-7.07,4.02,-14.40,12.45,19.80,30.09,48.23,
01/01/2000,00:01:04.63,-148.93,20.51,939.94,-7.07,-15.73,3.90,-12.75,12.90,17.70,29.90,48.27,
01/01/2000,00:01:04.63,-142.09,32.71,881.35,-5.55,-7.07,6.10,-13.50,12.15,18.90,29.80,48.30,
01/01/2000,00:01:04.63,-162.60,56.64,917.97,-0.12,3.41,7.99,-13.95,10.95,18.90,29.80,48.34,
01/01/2000,00:01:04.63,-223.14,33.69,951.66,0.67,-9.70,4.88,-12.45,12.60,18.90,29.61,48.37,
01/01/2000,00:01:04.63,-196.29,-12.70,1028.81,3.23,0.06,5.73,-15.45,10.65,20.40,29.80,46.43,
01/01/2000,00:01:04.63,-181.64,4.39,1087.40,1.59,-2.80,6.34,-12.45,9.90,18.90,29.61,46.49,
01/01/2000,00:01:04.63,-203.12,-10.25,1127.93,-1.04,-4.94,4.82,-12.45,11.85,18.90,29.99,46.55,
01/01/2000,00:01:04.63,-176.76,-5.37,1115.23,-2.56,4.88,5.00,-13.65,12.00,17.55,29.66,46.61,
01/01/2000,00:01:04.63,-129.88,0.49,1101.56,1.71,16.71,11.95,-13.20,12.15,20.70,29.90,46.67,
01/01/2000,00:01:04.63,-187.99,41.99,1041.99,3.11,16.28,12.07,-13.50,10.95,19.65,29.61,46.73,
01/01/2000,00:01:04.63,-178.71,65.92,1065.92,10.67,10.00,10.61,-13.50,9.45,20.40,29.95,46.78,
01/01/2000,00:01:04.63,-178.71,104.98,1110.84,15.37,17.62,9.45,-12.90,11.25,20.10,29.66,46.84,
01/01/2000,00:01:04.63,-169.92,119.14,1202.15,19.02,21.40,-3.96,-12.75,11.85,18.90,29.80,46.89,
01/01/2000,00:01:04.64,-177.73,132.32,1232.91,9.63,16.77,-6.10,-12.90,12.45,20.10,29.66,46.94,
01/01/2000,00:01:04.64,-182.62,138.67,1217.29,2.44,5.43,-24.15,-12.00,11.85,19.20,29.75,46.99,
01/01/2000,00:01:04.64,-122.56,119.14,1195.80,-0.18,-6.28,-37.26,-13.35,10.50,20.85,29.95,47.03,
01/01/2000,00:01:04.65,-67.38,84.96,1192.38,6.95,-19.63,-43.78,-12.15,12.45,20.55,29.56,47.04,
01/01/2000,00:01:04.65,38.57,4.88,1302.73,20.30,-22.50,-45.12,-13.35,12.45,20.10,29.95,47.12,
01/01/2000,00:01:04.65,74.71,-92.77,1481.93,18.11,-7.07,-38.54,-12.75,13.35,21.15,29.90,47.16,
01/01/2000,00:01:04.66,30.76,-101.56,1458.01,-7.44,12.20,-27.26,-12.45,14.85,19.20,29.61,47.17,
01/01/2000,00:01:04.68,10.74,6.35,1192.38,-32.07,3.11,-23.54,-12.15,13.50,22.80,29.75,47.21,
01/01/2000,00:01:04.70,85.94,74.22,958.98,-37.13,1.83,-22.87,-10.05,13.95,18.75,29.66,47.25,
01/01/2000,00:01:04.72,104.00,108.89,831.05,-25.49,14.45,-10.67,-11.55,15.15,20.10,29.95,47.29,
01/01/2000,00:01:04.74,7.81,166.50,803.71,-10.98,35.18,-10.00,-10.80,11.55,23.10,29.56,47.33,
01/01/2000,00:01:04.76,-48.34,173.83,849.61,-1.65,34.70,-16.04,-11.70,12.90,22.20,29.95,47.36,
01/01/2000,00:01:04.78,-80.57,133.79,874.51,-7.62,24.76,-31.77,-9.00,12.90,22.20,29.61,47.40,
01/01/2000,00:01:04.80,-36.13,89.84,852.05,-13.96,12.38,-35.30,-8.85,13.20,20.55,29.56,47.43,
01/01/2000,00:01:04.82,-8.30,43.46,813.96,-17.62,7.38,-37.38,-10.50,14.55,22.50,29.80,47.46,
01/01/2000,00:01:04.86,17.09,-12.21,750.49,-19.94,12.01,-25.00,-9.45,12.60,25.80,29.66,47.07,
01/01/2000,00:01:04.88,11.23,-14.65,705.08,-16.59,14.33,-11.83,-8.25,13.80,21.45,29.95,47.11,
01/01/2000,00:01:04.90,-58.11,29.30,653.32,-9.09,14.51,-6.10,-9.75,13.35,24.00,29.95,47.15,
01/01/2000,00:01:04.92,-83.50,6.35,705.57,-4.88,-4.88,-6.34,-8.55,12.45,24.60,29.75,47.18,
01/01/2000,00:01:04.94,-112.79,43.46,719.24,-8.23,-8.84,-5.12,-8.10,12.45,23.85,29.80,47.22,
01/01/2000,00:01:04.96,-123.05,45.90,721.19,-6.95,-5.37,-3.60,-9.00,12.60,24.45,29.80,47.25,
01/01/2000,00:01:04.98,-202.15,59.08,795.90,-13.41,9.57,0.18,-7.95,12.90,23.70,29.80,47.28,
01/01/2000,00:01:05.00,-251.95,55.66,893.07,-10.98,-19.57,-0.49,-7.35,12.75,22.80,29.61,47.31,
01/01/2000,00:01:05.02,-230.96,-13.67,988.77,-11.52,-19.70,0.79,-7.80,12.75,24.90,29.95,47.34,
01/01/2000,00:01:05.04,-274.90,-2.44,988.28,-6.04,-18.84,10.98,-8.70,12.90,24.00,29.80,47.37,
01/01/2000,00:01:05.05,-215.33,-27.34,1027.34,3.60,-10.37,9.94,-7.50,12.90,23.25,29.90,47.40,
01/01/2000,00:01:05.05,-146.00,-57.62,1144.04,5.43,-9.94,19.63,-8.55,13.50,23.85,29.75,47.43,
01/01/2000,00:01:05.05,-152.34,-70.31,1315.92,-2.26,1.34,27.56,-9.60,12.00,22.35,29.56,47.46,
01/01/2000,00:01:05.05,-189.45,-30.76,1427.25,-10.18,9.76,28.54,-9.00,13.35,22.50,29.80,47.49,
01/01/2000,00:01:05.05,-179.20,-69.82,1435.55,-18.41,9.63,33.29,-8.55,10.50,24.15,29.61,47.52,
01/01/2000,00:01:05.05,-158.20,19.04,1289.06,-19.70,9.82,35.98,-9.00,10.95,24.75,30.09,47.54,
01/01/2000,00:01:05.05,-175.78,26.86,1276.37,-7.99,6.28,28.54,-9.30,11.55,23.55,29.90,47.57,
01/01/2000,00:01:05.05,-89.36,-34.18,1435.55,4.27,-0.67,13.48,-10.05,9.60,24.90,29.95,47.59,
01/01/2000,00:01:05.05,69.82,-129.88,1527.34,7.62,16.28,15.24,-9.75,9.90,22.50,29.95,47.62,
01/01/2000,00:01:05.05,61.04,-140.14,1430.66,2.80,23.60,23.17,-8.85,9.30,24.15,29.47,47.64,
01/01/2000,00:01:05.05,73.24,-135.25,1271.48,-1.22,24.82,20.24,-9.45,10.65,25.20,29.95,47.67,
01/01/2000,00:01:05.05,87.89,-94.24,1151.86,-1.22,20.37,15.67,-8.10,10.05,24.15,29.61,47.69,
01/01/2000,00:01:05.05,74.22,-21.00,1079.10,3.35,20.00,13.78,-8.55,10.05,24.15,29.90,47.71,
01/01/2000,00:01:05.05,33.20,22.95,974.61,9.57,18.11,7.62,-7.50,9.90,25.50,29.95,47.74,
01/01/2000,00:01:05.05,0.00,43.95,944.34,11.40,20.24,-1.46,-7.80,9.30,25.65,29.99,47.76,
01/01/2000,00:01:05.05,9.77,28.81,613.28,-1.59,-3.05,-4.76,-8.55,10.50,25.35,29.90,46.76,
01/01/2000,00:01:05.05,-0.98,34.18,584.96,4.94,4.27,3.29,-7.80,10.05,25.65,29.95,46.79,
01/01/2000,00:01:05.05,-40.04,6.84,583.01,7.56,8.96,12.20,-7.35,11.25,24.90,29.95,46.82,
01/01/2000,00:01:05.05,-51.76,-19.04,583.01,4.88,8.90,19.39,-7.20,9.45,25.80,29.90,46.85,
01/01/2000,00:01:05.05,-110.84,-6.35,586.43,5.85,10.61,21.89,-7.05,9.30,24.90,29.80,46.88,
01/01/2000,00:01:05.05,-169.43,5.86,597.66,6.83,8.23,21.95,-8.25,9.90,25.50,29.56,46.91,
01/01/2000,00:01:05.05,-206.54,-18.55,697.27,16.77,4.02,13.48,-7.35,10.05,24.60,29.95,46.94,
01/01/2000,00:01:05.05,-183.59,-56.15,820.31,22.99,4.88,8.29,-6.45,8.70,24.75,29.61,46.96,
01/01/2000,00:01:05.05,-187.99,-51.27,913.09,24.51,3.54,11.40,-7.80,8.85,24.90,29.95,46.99,
01/01/2000,00:01:05.05,-220.70,-20.51,1021.00,26.95,-0.55,3.41,-7.95,10.20,25.50,29.80,47.02,
01/01/2000,00:01:05.05,-240.23,2.44,1188.48,23.11,-10.00,-12.13,-7.80,9.60,24.60,29.61,47.04,
01/01/2000,00:01:05.05,-198.24,88.38,1362.30,19.09,-13.72,-27.50,-7.35,10.50,26.10,29.90,47.07,
01/01/2000,00:01:05.05,-94.24,45.41,1394.53,15.12,-27.99,-39.76,-6.75,9.90,24.75,29.66,47.09,
01/01/2000,00:01:05.05,-81.05,16.11,1356.93,12.01,-36.89,-43.05,-8.55,10.80,24.15,29.66,47.12,
01/01/2000,00:01:05.05,-25.88,18.55,1387.21,8.66,-32.80,-52.13,-7.95,11.40,22.95,29.56,47.14,
01/01/2000,00:01:05.05,-62.01,5.37,1570.80,10.85,-41.40,-61.71,-7.20,12.90,24.75,29.95,47.17,
01/01/2000,00:01:05.05,60.06,-83.01,1809.08,8.54,-31.65,-66.10,-8.25,13.35,24.00,29.90,47.17,
01/01/2000,00:01:05.05,202.64,-137.70,1813.48,-1.34,-4.21,-38.90,-9.60,13.95,22.05,29.66,47.19,
01/01/2000,00:01:05.05,164.06,-29.30,1541.99,-20.67,15.37,-5.37,-7.35,13.95,22.80,29.80,47.22,
01/01/2000,00:01:05.05,91.31,125.49,1157.71,-23.11,25.85,12.44,-8.10,15.15,23.55,29.99,47.24,
01/01/2000,00:01:05.05,26.37,195.31,902.34,-13.17,38.66,23.05,-8.55,14.25,25.35,29.80,47.26,
01/01/2000,00:01:05.05,-60.06,231.45,729.00,-1.89,46.40,24.15,-7.05,14.70,24.60,29.90,47.28,
01/01/2000,00:01:05.05,-172.36,221.68,663.57,2.99,41.34,8.78,-6.30,13.50,24.15,29.75,47.30,
01/01/2000,00:01:05.05,-212.40,172.36,613.77,0.30,29.09,-13.78,-6.45,14.55,24.45,29.99,47.32,
01/01/2000,00:01:05.05,-135.74,44.43,545.41,-5.79,3.78,-36.40,-5.10,12.45,25.65,29.90,47.11,
01/01/2000,00:01:05.05,-93.75,0.00,501.95,-9.82,-3.84,-42.50,-6.60,14.70,25.35,29.56,47.15,
01/01/2000,00:01:05.05,-23.93,-51.76,501.95,-9.88,3.17,-39.88,-4.80,13.95,26.40,29.75,47.15,
01/01/2000,00:01:05.05,-0.98,-71.29,520.51,-7.68,4.82,-30.98,-5.10,14.70,25.65,29.80,47.17,
01/01/2000,00:01:05.05,-34.18,-64.94,563.48,-2.13,4.76,-18.78,-5.10,13.20,25.35,29.95,47.19,
01/01/2000,00:01:05.05,-74.71,-72.27,655.76,1.34,-4.45,-10.43,-5.70,13.80,25.50,29.80,47.22,
01/01/2000,00:01:05.05,-131.84,-20.02,751.95,4.63,1.65,-1.46,-4.20,13.80,25.20,29.80,47.24,
01/01/2000,00:01:05.05,-210.45,23.44,860.35,9.51,-2.01,-0.37,-6.45,15.30,25.50,29.95,47.26,
01/01/2000,00:01:05.05,-248.05,46.39,983.40,12.38,-1.95,0.12,-4.65,14.55,26.25,29.47,47.28,
01/01/2000,00:01:05.05,-320.80,23.44,1109.86,6.89,-1.65,5.43,-5.10,14.70,24.15,29.99,47.29,
01/01/2000,00:01:05.05,-355.96,10.25,1232.91,-2.26,-12.26,1.34,-4.80,13.95,25.35,29.80,47.31,
01/01/2000,00:01:05.05,-225.10,-32.23,1272.95,-7.32,-15.55,4.57,-5.70,12.90,26.55,29.80,47.33,
01/01/2000,00:01:05.05,-128.42,-41.02,1399.41,-11.16,-16.22,29.39,-6.60,13.95,24.90,29.95,47.35,
01/01/2000,00:01:05.05,-124.02,11.72,1440.92,-14.76,10.24,49.39,-5.40,13.80,25.80,29.80,47.37,
01/01/2000,00:01:05.05,-122.07,87.89,1395.51,-18.48,17.26,49.76,-6.00,14.10,25.20,29.95,47.39,
01/01/2000,00:01:05.05,-164.06,186.52,1315.92,-9.15,9.27,47.74,-5.40,10.95,25.50,29.61,47.41,
01/01/2000,00:01:05.05,-203.61,147.95,1499.51,9.27,-12.38,16.59,-5.85,12.45,25.65,29.66,47.42,
01/01/2000,00:01:05.05,-29.79,-69.82,1754.88,12.44,-18.17,0.43,-6.30,13.95,26.85,29.95,47.44,
01/01/2000,00:01:05.05,106.45,-218.26,1763.67,6.04,1.59,9.70,-6.75,12.60,24.75,29.95,47.46,
01/01/2000,00:01:05.05,51.27,-187.50,1457.03,-11.46,11.52,28.05,-6.00,12.60,25.50,29.90,47.48,
01/01/2000,00:01:05.05,28.81,-155.27,1190.92,-19.63,6.28,22.56,-6.30,11.55,24.15,29.99,47.49,
01/01/2000,00:01:05.05,100.10,-106.45,954.59,-16.46,-1.22,17.87,-5.85,11.25,25.65,29.95,47.51,
01/01/2000,00:01:05.05,91.80,-77.15,895.51,-1.46,9.27,27.20,-5.85,10.50,23.85,29.80,47.53,
01/01/2000,00:01:05.05,17.58,-22.46,903.32,14.82,25.55,31.83,-6.75,10.65,25.20,29.95,47.54,
01/01/2000,00:01:05.05,-33.69,-7.32,851.56,10.79,23.48,31.40,-7.20,10.65,26.25,29.90,47.56,
01/01/2000,00:01:05.05,-41.99,27.83,407.23,7.07,11.65,23.84,-6.30,10.50,26.40,29.95,46.89,
01/01/2000,00:01:05.05,-79.59,60.06,434.08,15.30,6.34,26.34,-6.00,10.20,27.30,29.95,46.91,
01/01/2000,00:01:05.05,-53.22,42.48,520.02,13.84,0.73,31.65,-4.20,10.20,24.75,29.80,46.93,
01/01/2000,00:01:05.05,-60.55,39.06,482.42,12.32,-9.51,37.26,-6.30,11.55,26.10,29.95,46.95,
01/01/2000,00:01:05.05,-117.68,74.22,440.43,17.44,-17.74,30.98,-6.30,10.50,25.65,29.90,46.97,
01/01/2000,00:01:05.05,-140.14,56.64,593.75,20.24,-13.48,23.29,-7.50,12.15,26.25,29.95,46.99,
01/01/2000,00:01:05.05,-103.52,43.46,722.17,24.94,-16.46,11.40,-4.80,10.80,24.90,29.66,47.01,
01/01/2000,00:01:05.05,-62.99,0.00,985.84,32.87,-25.79,10.30,-7.20,9.90,25.20,29.90,47.03,
01/01/2000,00:01:05.05,-115.72,1.95,1290.53,35.12,-19.94,8.11,-7.35,12.45,25.65,29.66,47.04,
01/01/2000,00:01:05.05,-178.71,24.90,1579.10,31.71,-15.67,1.16,-7.20,12.90,25.20,29.80,47.06,
01/01/2000,00:01:05.05,-169.92,40.04,1649.41,9.63,-12.26,-10.12,-7.95,12.60,24.45,29.80,47.08,
01/01/2000,00:01:05.05,-109.86,42.48,1498.05,-5.43,-13.35,-23.05,-8.70,12.90,24.45,29.80,47.10,
01/01/2000,00:01:05.05,-72.75,48.83,1355.96,-10.24,-3.29,-24.39,-7.50,13.20,24.60,29.95,47.11,
01/01/2000,00:01:05.05,-170.90,77.64,1424.32,-3.05,-1.40,-29.27,-7.80,12.45,25.35,29.90,47.13,
01/01/2000,00:01:05.05,-219.24,41.50,1685.55,-3.23,-13.60,-48.41,-7.95,13.80,23.25,30.09,47.15,
01/01/2000,00:01:05.05,-30.27,-48.83,1872.56,-15.55,-29.21,-63.23,-6.60,12.45,23.55,29.80,47.16,
01/01/2000,00:01:05.05,201.66,-89.84,1737.79,-25.00,1.83,-40.98,-7.50,13.35,24.75,29.80,47.18,
01/01/2000,00:01:05.05,177.73,37.60,1435.55,-29.33,30.12,2.32,-7.05,13.95,24.15,29.99,47.20,
01/01/2000,00:01:05.05,92.29,152.34,1092.29,-29.57,38.72,13.84,-7.80,13.20,24.90,29.80,47.21,
01/01/2000,00:01:05.05,64.94,225.10,862.79,-27.07,42.62,21.40,-6.75,12.90,23.70,29.95,47.23,
01/01/2000,00:01:05.05,-11.72,220.70,694.82,-16.95,32.87,22.62,-7.05,10.80,23.85,29.61,47.24,
01/01/2000,00:01:05.05,-140.14,220.21,598.63,-8.66,31.04,17.80,-6.30,10.80,26.85,29.95,47.26,
01/01/2000,00:01:05.05,-185.06,156.74,579.59,-7.62,28.23,0.00,-6.00,10.95,25.20,29.80,47.27,
01/01/2000,00:01:05.05,-167.97,82.52,580.08,-13.84,16.16,-15.43,-4.65,10.20,25.80,29.95,47.29,
01/01/2000,00:01:05.05,-50.78,-18.55,452.64,-19.88,5.79,-25.00,-5.10,9.60,25.65,29.80,47.12,
01/01/2000,00:01:05.05,-30.76,-29.30,398.93,-16.89,9.15,-20.61,-5.85,10.80,27.45,29.56,47.14,
01/01/2000,00:01:05.05,-18.55,-19.53,393.07,-11.04,5.73,-16.95,-2.85,10.50,26.10,29.80,47.15,
01/01/2000,00:01:05.05,-32.71,-56.15,491.21,-2.26,-1.22,-10.43,-5.40,10.95,26.55,29.47,47.17,
01/01/2000,00:01:05.05,-84.96,-30.76,541.99,3.11,-5.98,-1.34,-4.80,10.80,26.85,29.95,47.18,
01/01/2000,00:01:05.05,-132.32,-47.85,663.09,11.10,-13.90,1.89,-5.70,9.90,25.50,29.90,47.20,
01/01/2000,00:01:05.05,-162.60,-44.43,826.17,10.24,-12.20,1.04,-3.30,10.80,26.85,29.61,47.21,
01/01/2000,00:01:05.05,-179.69,-38.09,959.96,7.26,-8.17,6.95,-4.20,12.90,25.20,29.75,47.23,
01/01/2000,00:01:05.05,-221.68,-91.80,1116.21,6.16,-15.12,10.18,-4.20,10.65,25.50,29.80,47.24,
01/01/2000,00:01:05.05,-261.23,-111.82,1274.90,-3.90,-17.93,15.67,-5.40,10.95,25.50,29.66,47.26,
01/01/2000,00:01:05.05,-199.71,-95.21,1310.55,-11.16,-17.74,30.06,-5.70,10.95,25.50,29.95,47.27,
01/01/2000,00:01:05.05,-215.82,-39.55,1389.65,-16.22,-8.78,39.09,-6.45,9.45,25.50,29.95,47.29,
01/01/2000,00:01:05.05,-181.15,1.46,1473.14,-19.21,0.61,48.54,-5.55,9.30,26.10,29.80,47.30,
01/01/2000,00:01:05.05,-168.46,53.71,1404.79,-26.46,0.73,54.39,-6.60,10.05,26.10,29.80,47.31,
01/01/2000,00:01:05.05,-197.27,146.48,1338.87,-19.39,-14.45,60.67,-7.35,9.30,25.65,29.95,47.33,
01/01/2000,00:01:05.05,-340.33,89.84,1521.48,2.38,-23.90,36.10,-6.00,7.95,25.50,29.66,47.34,
01/01/2000,00:01:05.05,-114.75,-102.05,1737.79,3.60,-17.68,12.56,-7.35,8.10,25.65,29.90,47.36,
01/01/2000,00:01:05.05,86.91,-195.80,1532.23,-5.30,-3.96,23.05,-8.25,8.25,24.45,30.09,47.37,
01/01/2000,00:01:05.05,88.38,-163.09,1247.56,-1.22,22.68,38.66,-6.75,7.50,25.80,29.95,47.38,
01/01/2000,00:01:05.05,47.85,-130.37,1041.02,4.88,26.28,43.66,-8.25,9.45,25.20,29.66,47.39,
01/01/2000,00:01:05.05,-12.21,-105.47,1031.74,13.66,13.72,38.66,-6.45,8.70,24.75,29.95,47.41,
01/01/2000,00:01:05.05,-45.41,-87.40,1088.87,10.91,1.77,28.90,-8.85,8.55,24.90,29.99,47.42,
01/01/2000,00:01:05.05,-57.62,-59.08,993.65,1.71,1.34,21.95,-5.70,7.95,25.80,29.66,47.43,
01/01/2000,00:01:05.05,-70.31,-23.44,805.18,-1.10,4.63,17.32,-7.20,7.05,27.00,29.80,47.45,
01/01/2000,00:01:05.05,-30.76,23.44,472.17,-6.71,-12.44,15.67,-6.60,6.60,27.15,29.80,46.96,
01/01/2000,00:01:05.05,8.79,-4.88,432.13,-3.72,-11.22,20.79,-7.95,6.30,25.50,29.80,46.97,
01/01/2000,00:01:05.05,-29.30,31.74,433.11,5.18,-1.34,32.20,-6.60,6.60,26.10,29.80,46.99,
01/01/2000,00:01:05.05,-109.86,50.78,495.12,12.50,0.73,34.57,-7.05,5.40,26.10,29.80,47.00,
01/01/2000,00:01:05.05,-131.35,30.27,602.54,12.20,-15.43,30.30,-7.50,6.30,25.50,29.75,47.01,
01/01/2000,00:01:05.05,-122.07,6.35,707.03,7.50,-14.02,26.22,-7.95,6.30,26.25,29.90,47.03,
01/01/2000,00:01:05.05,-134.77,-12.21,794.92,11.83,-12.87,19.94,-9.30,4.65,24.60,29.75,47.04,
01/01/2000,00:01:05.05,-155.76,-6.84,950.20,22.56,-21.95,11.52,-9.00,6.75,25.20,29.95,47.06,
01/01/2000,00:01:05.05,-131.35,-62.01,1287.11,26.83,-20.37,6.59,-9.60,6.15,24.90,29.56,47.07,
01/01/2000,00:01:05.05,-126.46,-46.88,1526.86,23.29,-4.82,12.44,-8.85,7.35,24.60,29.80,47.08,
01/01/2000,00:01:05.05,-198.24,-21.97,1550.29,12.68,-7.74,7.26,-9.75,5.55,24.75,29.80,47.10,
01/01/2000,00:01:05.05,-183.59,28.32,1396.97,-0.67,-8.96,-12.38,-10.80,7.35,25.65,29.90,47.11,
01/01/2000,00:01:05.05,-40.04,6.84,1339.84,6.22,-9.94,-22.07,-8.55,7.35,24.90,29.95,47.12,
01/01/2000,00:01:05.05,-50.29,-22.95,1437.01,13.35,0.61,-19.02,-8.70,7.50,24.75,29.80,47.14,
01/01/2000,00:01:05.05,-159.67,-27.83,1627.44,12.32,-6.65,-34.51,-9.30,7.65,24.15,29.75,47.15,
01/01/2000,00:01:05.05,-38.57,-112.79,1754.39,-4.88,-11.95,-48.17,-10.95,8.25,24.75,29.56,47.16,
01/01/2000,00:01:05.05,184.08,-115.23,1558.11,-18.23,-1.77,-32.13,-11.10,7.65,23.55,29.80,47.17,
01/01/2000,00:01:05.05,220.21,8.30,1304.69,-18.66,17.38,0.18,-10.35,7.35,24.60,29.95,47.19,
01/01/2000,00:01:05.05,68.85,130.37,1071.29,-11.10,41.40,18.11,-9.00,7.05,25.50,29.90,47.20,
01/01/2000,00:01:05.05,10.25,176.76,904.79,-14.63,38.90,16.40,-7.80,6.90,24.90,29.95,47.21,
01/01/2000,00:01:05.05,-16.11,151.37,732.42,-15.06,17.87,11.10,-8.70,7.50,24.75,29.80,47.22,
01/01/2000,00:01:05.05,-26.86,127.93,572.75,-15.00,8.72,10.30,-7.20,5.55,25.80,29.80,47.24,
01/01/2000,00:01:05.05,-73.24,91.80,520.02,-2.38,6.28,9.82,-8.70,5.55,26.25,29.75,47.25,
01/01/2000,00:01:05.05,-123.05,28.32,561.52,3.11,9.76,3.05,-7.35,6.60,26.10,29.80,47.26,
01/01/2000,00:01:05.05,-62.99,-82.03,562.50,-19.02,-9.15,-3.60,-9.30,6.15,26.40,29.75,46.92,
01/01/2000,00:01:05.05,-51.27,-75.68,549.32,-15.43,-8.29,4.57,-8.70,6.75,25.80,29.75,46.93,
01/01/2000,00:01:05.05,-68.36,-70.31,617.19,-8.54,-2.50,15.73,-8.55,5.70,24.90,29.75,46.94,
01/01/2000,00:01:05.05,-148.44,-51.76,762.21,-5.61,-2.74,23.84,-7.80,6.15,24.15,29.95,46.96,
01/01/2000,00:01:05.05,-228.03,-24.41,854.98,-7.07,-8.11,25.18,-8.70,5.55,25.80,29.61,46.97,
01/01/2000,00:01:05.05,-242.19,0.98,925.78,-10.55,-11.77,23.35,-8.25,5.55,24.45,29.95,46.98,
01/01/2000,00:01:05.05,-237.30,25.39,989.26,-12.13,-10.06,21.95,-8.70,5.25,24.75,29.75,47.00,
01/01/2000,00:01:05.05,-255.86,35.16,1071.78,-9.63,-11.95,23.84,-8.10,5.40,25.35,29.80,47.01,
01/01/2000,00:01:05.05,-245.12,3.91,1160.16,-11.04,-5.85,25.24,-9.00,4.80,25.20,29.99,47.02,
01/01/2000,00:01:05.05,-202.64,10.74,1379.39,-12.07,-4.70,30.00,-10.20,3.30,26.25,29.75,47.03,
01/01/2000,00:01:05.05,-208.98,-34.18,1563.96,-20.79,2.99,31.46,-9.60,3.45,24.60,29.99,47.04,
01/01/2000,00:01:05.05,-121.58,-20.02,1479.49,-26.59,8.66,38.48,-10.95,2.85,25.80,29.56,47.06,
01/01/2000,00:01:05.05,-126.46,39.55,1361.82,-16.95,-4.70,43.72,-9.30,3.45,25.65,29.95,47.07,
01/01/2000,00:01:05.05,-204.10,-19.53,1500.49,9.88,-3.72,31.71,-9.60,1.50,26.10,29.56,47.08,
01/01/2000,00:01:05.05,-1.46,-156.74,1739.26,15.37,3.11,17.44,-9.30,1.80,26.40,29.99,47.09,
01/01/2000,00:01:05.05,9.28,-234.86,1687.99,4.76,18.78,26.52,-9.45,1.35,27.00,29.90,47.10,
01/01/2000,00:01:05.05,0.49,-212.40,1442.87,-5.55,9.15,20.73,-8.10,2.25,25.65,29.90,47.12,
01/01/2000,00:01:05.05,135.25,-208.01,1208.50,-6.65,6.89,12.68,-9.30,2.25,24.90,29.80,47.13,
01/01/2000,00:01:05.05,147.46,-178.22,1118.65,5.85,16.59,18.17,-7.95,0.45,24.75,29.80,47.14,
01/01/2000,00:01:05.05,104.00,-141.11,1069.34,11.65,17.87,22.74,-8.25,0.45,26.25,29.90,47.15,
01/01/2000,00:01:05.05,22.46,-77.15,947.27,3.29,12.44,14.21,-8.85,0.00,26.85,29.66,47.16,
01/01/2000,00:01:05.05,12.70,-17.09,747.07,-7.68,6.46,10.06,-9.00,1.65,25.50,29.75,47.17,
01/01/2000,00:01:05.05,59.57,10.25,528.32,-3.78,4.33,13.96,-7.80,-0.30,25.35,30.09,47.18,
01/01/2000,00:01:05.05,41.99,23.44,421.39,6.52,4.63,22.07,-9.60,0.00,26.40,29.80,47.19,
01/01/2000,00:01:05.05,-61.04,-0.49,466.31,4.57,3.35,32.13,-8.85,1.05,26.85,29.80,47.07,
01/01/2000,00:01:05.05,-61.04,-4.88,469.24,2.62,1.65,34.70,-6.75,1.35,25.50,29.66,47.08,
01/01/2000,00:01:05.05,-83.50,4.88,465.33,6.77,2.20,42.80,-7.50,-0.90,25.80,29.95,47.09,
01/01/2000,00:01:05.05,-166.99,50.78,436.52,8.48,6.52,40.61,-7.80,-1.50,26.10,29.80,47.10,
01/01/2000,00:01:05.05,-160.16,40.04,561.52,16.59,1.28,30.06,-7.80,-0.75,26.10,30.09,47.11,
01/01/2000,00:01:05.05,-168.46,17.58,713.38,26.16,-4.57,20.73,-8.25,-0.15,25.20,29.90,47.12,
01/01/2000,00:01:05.05,-114.75,-13.67,916.50,33.41,-13.96,14.09,-9.00,1.65,25.20,29.56,47.13,
01/01/2000,00:01:05.05,-86.43,-16.60,1184.08,36.77,-12.44,12.56,-8.55,0.30,26.10,29.80,47.15,
01/01/2000,00:01:05.05,-260.25,30.76,1436.52,33.84,4.02,7.38,-7.35,0.30,25.65,29.66,47.16,
01/01/2000,00:01:05.05,-235.35,55.66,1463.87,17.62,-3.29,-18.96,-7.50,1.65,25.50,29.99,47.17,
01/01/2000,00:01:05.05,-54.69,23.44,1395.51,7.44,-10.30,-32.99,-7.35,1.05,24.90,29.80,47.18,
01/01/2000,00:01:05.05,-52.73,45.90,1379.39,9.02,-7.62,-31.22,-6.75,2.10,27.30,29.95,47.19,
01/01/2000,00:01:05.05,-123.54,65.92,1383.79,15.73,-8.66,-44.76,-8.10,0.75,25.35,29.80,47.20,
01/01/2000,00:01:05.05,-36.13,-29.30,1720.21,33.78,-23.11,-61.46,-8.70,3.30,26.25,29.56,47.21,
01/01/2000,00:01:05.05,185.55,-105.96,1864.26,20.61,-1.71,-48.84,-7.80,4.65,24.15,29.80,47.22,
01/01/2000,00:01:05.05,208.98,-24.41,1690.92,0.61,8.78,-14.33,-8.25,4.80,24.75,29.61,47.23,
01/01/2000,00:01:05.05,-15.14,140.62,1382.81,-21.65,9.76,-2.20,-9.00,4.05,25.50,29.80,47.24,
01/01/2000,00:01:05.05,24.90,192.87,1073.73,-22.26,1.46,1.46,-8.85,4.65,25.35,29.95,47.25,
01/01/2000,00:01:05.05,15.62,171.39,847.17,-15.12,4.27,8.05,-9.60,3.45,26.10,29.61,47.26,
01/01/2000,00:01:05.05,-120.61,134.77,721.19,-11.83,9.57,8.48,-7.50,3.60,25.20,29.90,47.27,
01/01/2000,00:01:05.05,-167.97,81.54,627.93,-7.87,9.82,5.37,-8.85,2.25,25.65,29.80,47.28,
01/01/2000,00:01:05.05,-212.40,21.97,607.42,-10.37,0.12,-10.43,-7.35,3.00,24.60,29.66,47.29,
01/01/2000,00:01:05.05,-190.43,-33.20,561.04,-18.29,5.18,-18.11,-8.70,2.10,25.80,29.80,47.30,
01/01/2000,00:01:05.05,-106.93,-59.57,481.45,-19.02,1.77,-18.90,-8.55,1.80,25.65,29.66,47.31,
01/01/2000,00:01:05.05,-68.85,-33.20,551.76,-12.50,8.05,0.00,-9.30,3.45,26.85,29.66,46.95,
01/01/2000,00:01:05.05,-97.66,-7.32,638.67,-11.40,0.06,3.96,-7.35,3.00,24.90,29.95,46.96,
01/01/2000,00:01:05.05,-146.97,33.20,775.39,-5.55,-5.61,6.71,-7.80,2.70,24.90,29.90,46.97,
01/01/2000,00:01:05.05,-158.69,52.25,896.48,-6.71,-7.74,10.24,-7.80,4.20,26.85,29.99,46.98,
01/01/2000,00:01:05.05,-208.50,43.46,1037.60,-8.72,-10.24,6.16,-8.85,1.50,26.10,29.56,46.99,
01/01/2000,00:01:05.05,-220.70,29.30,1175.29,-11.83,-9.57,9.76,-7.05,1.05,25.35,29.90,47.00,
01/01/2000,00:01:05.05,-194.82,20.02,1273.44,-12.01,-7.93,10.18,-8.70,0.90,24.75,29.95,47.01,
01/01/2000,00:01:05.05,-97.66,16.60,1404.30,-14.51,-8.05,17.99,-7.95,0.90,25.20,29.80,47.02,
01/01/2000,00:01:05.05,-138.18,35.16,1516.11,-26.59,6.16,34.70,-8.25,0.90,25.50,29.80,47.03,
01/01/2000,00:01:05.05,-104.00,96.68,1361.82,-41.52,1.65,38.96,-7.35,1.05,26.85,29.90,47.04,
01/01/2000,00:01:05.05,-148.44,209.47,1223.14,-34.21,-14.51,51.10,-7.80,-0.75,25.35,29.80,47.05,
01/01/2000,00:01:05.05,-371.09,186.04,1325.68,-2.26,-13.72,30.61,-9.45,-2.40,24.45,29.80,47.06,
01/01/2000,00:01:05.05,-213.87,1.46,1667.48,18.66,-12.20,2.38,-9.00,-2.85,25.20,30.09,47.07,
01/01/2000,00:01:05.05,16.11,-135.25,1663.09,18.60,4.57,5.37,-9.00,-0.90,24.75,29.61,47.08,
01/01/2000,00:01:05.05,9.77,-160.64,1485.84,17.56,22.01,16.34,-8.85,-3.00,25.35,29.80,47.09,
01/01/2000,00:01:05.05,25.88,-177.73,1330.57,11.16,20.73,7.01,-7.50,-1.65,25.20,29.80,47.10,
01/01/2000,00:01:05.05,32.23,-134.28,1190.43,6.04,13.54,-0.30,-7.95,0.15,27.00,29.75,47.11,
01/01/2000,00:01:05.05,39.06,-101.07,1080.57,12.01,14.15,-1.59,-7.80,-2.25,26.40,29.80,47.12,
01/01/2000,00:01:05.05,-16.60,-82.52,1020.51,13.41,16.04,-3.05,-7.95,-1.65,24.75,29.75,47.13,
01/01/2000,00:01:05.05,-53.71,-33.20,880.86,4.15,10.12,-5.73,-8.70,-0.90,25.80,29.95,47.14,
01/01/2000,00:01:05.05,-65.43,2.44,637.21,-8.96,10.12,-10.67,-6.75,-0.15,26.55,29.66,47.15,
01/01/2000,00:01:05.05,-35.64,32.71,427.73,-9.15,3.60,-10.37,-7.80,-0.75,26.40,29.66,47.16,
01/01/2000,00:01:05.05,-38.09,42.48,346.19,-4.15,0.37,-5.67,-7.20,0.90,25.20,29.90,47.17,
01/01/2000,00:01:05.05,-58.11,22.46,339.84,-3.17,-1.22,0.85,-7.05,-1.80,24.90,29.90,47.18,
01/01/2000,00:01:05.05,-54.20,31.74,367.19,-3.29,-4.88,5.06,-6.60,-1.05,26.85,29.95,47.08,
01/01/2000,00:01:05.05,-101.56,28.32,427.73,4.09,-4.94,12.87,-7.80,0.00,26.10,29.75,47.09,
01/01/2000,00:01:05.05,-120.12,6.35,596.68,12.74,-8.84,9.27,-7.20,-0.15,25.80,29.95,47.10,
01/01/2000,00:01:05.05,-136.72,-19.53,759.28,17.50,-11.34,6.95,-7.05,-1.80,26.40,29.90,47.11,
01/01/2000,00:01:05.05,-122.07,-38.09,918.95,18.48,-25.24,-1.22,-7.50,0.90,25.50,29.95,47.12,
01/01/2000,00:01:05.05,-70.80,-29.79,1208.98,20.67,-30.61,-5.30,-8.55,-0.30,24.60,29.47,47.13,
01/01/2000,00:01:05.05,-152.83,55.66,1453.61,21.04,-2.20,0.30,-9.60,-1.05,25.65,29.90,47.14,
01/01/2000,00:01:05.05,-230.47,87.89,1583.01,14.88,1.22,-12.99,-9.45,0.15,27.00,29.75,47.15,
01/01/2000,00:01:05.05,-137.70,87.40,1497.56,-0.06,-16.52,-37.99,-10.05,-0.75,25.35,29.80,47.15,
01/01/2000,00:01:05.05,-26.37,54.20,1382.32,-1.77,-5.49,-38.17,-8.55,0.75,25.65,29.90,47.16,
01/01/2000,00:01:05.05,-103.52,63.96,1388.18,6.89,4.21,-33.29,-8.85,1.80,25.65,29.66,47.17,
01/01/2000,00:01:05.05,-226.56,108.89,1466.80,16.40,-3.48,-55.12,-7.20,0.90,24.75,29.80,47.18,
01/01/2000,00:01:05.05,-74.71,9.28,1767.58,23.23,-11.71,-79.45,-9.75,0.45,25.80,29.56,47.19,
01/01/2000,00:01:05.05,210.94,-67.87,1824.71,7.80,1.65,-66.34,-9.75,2.40,24.75,29.95,47.20,
01/01/2000,00:01:05.05,218.75,38.09,1544.43,-12.07,19.51,-29.02,-8.85,3.00,25.35,29.80,47.21,
01/01/2000,00:01:05.05,115.23,149.41,1125.00,-16.04,23.35,-8.05,-8.70,2.40,24.00,29.90,47.22,
01/01/2000,00:01:05.05,9.77,203.61,838.87,-9.45,21.52,-6.59,-8.85,3.75,24.15,29.80,47.22,
01/01/2000,00:01:05.05,-42.48,194.82,681.64,-1.10,22.13,-6.89,-8.25,3.30,25.80,29.95,47.23,
01/01/2000,00:01:05.05,-140.14,183.59,575.20,3.84,17.26,-11.65,-9.45,2.10,25.20,29.90,47.24,
01/01/2000,00:01:05.05,-166.99,122.56,560.06,3.54,12.93,-25.18,-7.50,4.05,25.50,29.61,47.25,
01/01/2000,00:01:05.05,-166.99,70.31,551.76,-2.62,10.06,-28.72,-6.60,4.20,26.85,29.66,47.26,
01/01/2000,00:01:05.05,-131.84,24.90,479.49,-6.28,1.83,-38.17,-7.80,4.20,26.40,29.66,47.27,
01/01/2000,00:01:05.05,-97.66,-24.41,483.40,-2.99,-2.93,-37.07,-6.60,4.65,25.35,29.80,47.27,
01/01/2000,00:01:05.05,-48.34,-56.15,538.57,-5.43,-5.85,-28.60,-6.75,5.25,26.25,29.95,47.28,
01/01/2000,00:01:05.05,-61.04,-79.59,568.36,-6.83,-1.10,-15.43,-7.95,5.25,25.20,29.90,47.29,
01/01/2000,00:01:05.05,-190.92,18.55,792.48,7.62,2.56,-15.37,-7.50,3.60,28.50,29.90,46.98,
01/01/2000,00:01:05.05,-262.21,-7.81,1031.74,0.73,1.28,-10.85,-7.35,4.95,26.40,29.80,46.99,
01/01/2000,00:01:05.05,-274.41,-65.92,1117.19,-18.54,-19.27,-14.21,-6.75,6.30,25.80,29.61,46.99,
01/01/2000,00:01:05.05,-228.03,-71.78,1144.53,-26.59,-26.04,-7.44,-6.75,3.60,25.50,29.80,47.00,
01/01/2000,00:01:05.05,-231.45,-22.46,1206.05,-19.94,-30.18,6.22,-8.25,3.30,25.80,29.75,47.01,
01/01/2000,00:01:05.05,-188.48,-0.49,1558.59,-17.32,-12.74,18.48,-8.85,3.75,26.10,29.90,47.02,
01/01/2000,00:01:05.05,-207.03,-40.04,1712.40,-40.30,-3.11,25.55,-8.10,3.45,25.35,29.90,47.03,
01/01/2000,00:01:05.05,-142.58,62.99,1432.62,-50.79,-23.90,39.33,-7.80,4.20,25.65,29.95,47.04,
01/01/2000,00:01:05.05,-414.06,107.91,1357.42,-23.11,-25.49,34.09,-8.70,2.40,24.75,29.80,47.05,
01/01/2000,00:01:05.05,-168.95,9.77,1592.77,4.51,-17.07,6.10,-7.80,0.75,25.80,29.80,47.06,
01/01/2000,00:01:05.05,180.66,-159.67,1656.74,14.02,8.66,15.61,-7.80,0.75,25.35,29.90,47.06,
01/01/2000,00:01:05.05,110.35,-147.95,1510.25,16.34,26.89,35.55,-9.60,1.50,25.65,30.09,47.07,
01/01/2000,00:01:05.05,25.39,-114.75,1281.74,4.88,26.65,28.90,-7.95,0.45,24.75,29.80,47.08,
01/01/2000,00:01:05.05,65.43,-59.57,1079.10,4.51,12.87,11.77,-9.30,0.75,25.65,29.80,47.09,
01/01/2000,00:01:05.05,84.47,-27.34,932.62,12.99,5.91,1.52,-8.10,0.75,24.90,29.95,47.10,
01/01/2000,00:01:05.05,74.22,-36.62,857.42,20.06,4.09,1.16,-7.95,0.90,25.80,29.95,47.11,
01/01/2000,00:01:05.05,6.35,-20.51,737.30,15.06,0.30,-1.46,-9.45,2.85,26.25,29.56,47.11,
01/01/2000,00:01:05.05,-23.44,15.14,569.34,8.96,1.34,-4.15,-8.10,2.70,27.15,29.95,47.12,
01/01/2000,00:01:05.05,-20.51,26.86,471.68,6.65,-3.72,-3.84,-10.20,0.45,24.75,29.95,47.13,
01/01/2000,00:01:05.05,-6.35,9.77,442.87,9.27,-12.74,2.56,-7.35,1.05,25.35,29.95,47.14,
01/01/2000,00:01:05.05,-10.74,10.25,491.70,11.10,-12.56,6.89,-7.20,2.40,26.25,29.61,47.15,
01/01/2000,00:01:05.05,-17.09,12.70,505.86,7.74,-7.80,21.83,-8.70,2.40,24.75,29.66,47.15,
01/01/2000,00:01:05.05,-95.21,29.30,489.26,10.18,-8.90,27.07,-10.95,2.40,26.25,29.95,47.16,
01/01/2000,00:01:05.05,-139.65,57.62,501.95,10.79,-12.62,21.40,-8.70,1.35,26.25,29.66,47.17,
01/01/2000,00:01:05.05,-164.55,60.06,742.68,21.59,-20.55,9.51,-9.75,0.45,25.80,29.66,47.09,
01/01/2000,00:01:05.05,-100.10,16.60,913.09,26.10,-24.02,4.82,-10.80,1.05,25.65,29.75,47.10,
01/01/2000,00:01:05.05,-49.32,29.30,1083.50,34.88,-16.52,4.15,-10.05,1.05,25.65,29.95,47.11,
01/01/2000,00:01:05.05,-114.75,75.68,1351.56,41.28,-4.82,9.57,-9.60,1.80,25.65,29.80,47.12,
01/01/2000,00:01:05.05,-199.71,98.63,1560.55,33.35,-7.26,-11.65,-10.05,3.75,24.60,29.80,47.12,
01/01/2000,00:01:05.05,-63.96,20.02,1650.39,19.82,-14.57,-31.77,-10.50,2.10,24.00,29.66,47.13,
01/01/2000,00:01:05.05,32.23,55.66,1617.19,20.91,-8.54,-29.09,-10.95,5.25,24.45,29.95,47.14,
01/01/2000,00:01:05.05,-34.18,55.18,1759.28,29.33,-1.65,-34.02,-10.20,6.00,23.70,29.66,47.15,
01/01/2000,00:01:05.05,74.71,12.70,1959.47,25.61,5.49,-43.05,-10.05,5.70,23.85,29.90,47.16,
01/01/2000,00:01:05.05,78.61,5.37,1954.59,-4.33,8.23,-38.29,-11.25,6.75,25.20,29.95,47.16,
01/01/2000,00:01:05.05,130.37,138.67,1619.14,-30.79,12.50,-23.41,-10.35,5.40,24.90,29.99,47.17,
01/01/2000,00:01:05.05,150.39,230.96,1199.22,-28.54,20.00,-10.30,-9.30,7.35,24.90,30.09,47.18,
01/01/2000,00:01:05.05,71.78,280.76,936.04,-22.44,33.23,0.55,-9.60,4.95,24.15,29.80,47.19,
01/01/2000,00:01:05.05,-84.47,277.83,781.74,-12.80,29.02,-0.37,-10.20,5.25,24.75,29.80,47.19,
01/01/2000,00:01:05.05,-150.88,228.52,692.38,-5.67,24.63,-13.48,-8.70,5.25,26.25,29.56,47.20,
01/01/2000,00:01:05.05,-131.84,123.54,620.12,-3.41,17.99,-23.54,-8.70,6.30,26.55,29.80,47.21,
01/01/2000,00:01:05.05,-122.56,37.11,577.64,-5.98,14.27,-32.50,-8.25,6.00,24.45,29.80,47.22,
01/01/2000,00:01:05.05,-54.20,-38.09,484.38,-12.87,8.96,-34.27,-8.25,5.25,24.75,29.80,47.22,
01/01/2000,00:01:05.05,3.91,-72.27,411.13,-11.28,6.89,-21.16,-6.45,4.80,24.45,29.95,47.23,
01/01/2000,00:01:05.05,-28.81,-90.33,417.48,-11.83,1.77,-14.51,-8.70,7.05,25.50,30.09,47.24,
01/01/2000,00:01:05.05,-51.76,-58.11,382.81,-13.48,0.24,-7.93,-7.35,5.70,25.35,29.95,47.25,
01/01/2000,00:01:05.05,-65.92,-49.80,363.77,-8.84,-6.59,0.91,-5.70,6.75,25.50,29.80,47.25,
01/01/2000,00:01:05.05,-102.54,-21.48,434.08,-2.07,-9.76,11.46,-7.05,5.40,25.35,29.80,47.26,
01/01/2000,00:01:05.05,-191.41,5.37,565.92,6.10,-6.34,17.74,-7.05,5.40,25.65,29.95,47.27,
01/01/2000,00:01:05.05,-271.48,13.18,726.56,10.06,-5.91,13.48,-7.80,7.65,24.15,29.90,47.27,
01/01/2000,00:01:05.05,-100.59,-28.81,1254.39,-6.59,-17.07,15.85,-9.30,4.20,26.10,29.75,47.01,
01/01/2000,00:01:05.05,-115.72,-29.30,1447.27,-1.22,-8.60,26.83,-8.70,6.30,24.00,29.80,47.02,
01/01/2000,00:01:05.05,-151.86,-72.75,1677.73,-13.78,8.60,38.48,-9.30,4.65,25.35,29.47,47.02,
01/01/2000,00:01:05.05,-126.46,3.91,1577.15,-39.51,-5.12,28.17,-7.35,5.70,25.65,29.80,47.03,
01/01/2000,00:01:05.05,-57.13,146.97,1554.69,-24.88,-35.43,30.43,-8.85,2.25,26.10,29.95,47.04,
01/01/2000,00:01:05.05,-97.17,10.25,1777.83,4.39,-19.82,17.80,-9.60,4.65,25.35,29.66,47.05,
01/01/2000,00:01:05.05,144.53,-171.88,1848.14,7.26,0.24,21.65,-10.05,2.25,24.90,29.80,47.05,
01/01/2000,00:01:05.05,104.98,-156.25,1523.93,-4.88,9.45,38.41,-9.60,3.00,24.60,29.56,47.06,
01/01/2000,00:01:05.05,74.22,-107.42,1234.38,-4.33,10.06,36.52,-9.75,1.35,25.50,29.66,47.07,
01/01/2000,00:01:05.05,119.14,-58.11,1130.86,6.28,7.87,30.24,-9.75,3.60,24.00,29.56,47.08,
01/01/2000,00:01:05.05,46.88,-29.30,1131.84,15.06,12.44,31.71,-10.05,0.75,24.15,29.95,47.08,
01/01/2000,00:01:05.05,-16.11,-10.25,1070.31,10.85,14.51,18.29,-9.45,1.65,26.55,29.95,47.09,
01/01/2000,00:01:05.05,20.51,2.44,897.95,-3.72,7.68,7.99,-8.70,2.40,25.20,29.95,47.10,
01/01/2000,00:01:05.05,-0.49,23.44,638.18,-9.27,11.83,6.04,-8.55,2.70,24.15,29.95,47.10,
01/01/2000,00:01:05.05,10.74,70.31,386.72,-2.01,11.71,11.10,-8.70,1.65,25.80,29.66,47.11,
01/01/2000,00:01:05.05,-17.58,73.24,418.95,14.94,12.87,19.76,-7.95,2.85,25.20,29.95,47.12,
01/01/2000,00:01:05.05,-96.19,76.17,426.27,17.99,10.12,23.17,-10.50,-0.15,27.30,29.56,47.13,
01/01/2000,00:01:05.05,-106.93,74.71,445.31,11.77,-0.37,17.80,-8.55,1.50,24.90,29.80,47.13,
01/01/2000,00:01:05.05,-93.26,34.18,444.82,9.94,2.44,19.33,-9.00,1.35,26.55,29.80,47.14,
01/01/2000,00:01:05.05,-124.02,49.80,475.10,13.05,6.65,17.74,-8.25,1.65,25.80,29.95,47.15,
01/01/2000,00:01:05.05,-176.27,40.04,578.61,19.94,4.21,13.66,-7.80,1.05,24.15,29.75,47.15,
01/01/2000,00:01:05.05,-140.62,22.46,724.61,22.13,-5.12,2.13,-7.20,1.35,25.50,29.95,47.16,
01/01/2000,00:01:05.05,-168.46,-34.18,876.95,21.71,-6.83,-4.39,-8.10,0.75,25.65,29.80,47.17,
01/01/2000,00:01:05.05,-71.29,-25.39,1077.15,28.78,-11.40,-10.67,-9.60,3.45,27.15,29.61,47.17,
01/01/2000,00:01:05.05,-92.77,31.25,1477.05,40.37,-2.56,-0.79,-9.45,4.80,25.20,29.90,47.10,
01/01/2000,00:01:05.05,-121.09,15.14,1617.19,26.40,-1.71,-11.59,-8.10,3.00,24.60,29.90,47.11,
01/01/2000,00:01:05.05,-64.45,-3.91,1561.04,8.72,-5.24,-22.87,-8.55,4.65,24.90,29.90,47.12,
01/01/2000,00:01:05.05,-56.15,60.55,1505.37,2.01,-10.55,-33.29,-7.95,3.60,25.20,29.95,47.12,
01/01/2000,00:01:05.05,-84.47,79.59,1605.96,13.29,-24.27,-47.50,-9.30,4.20,24.60,29.56,47.13,
01/01/2000,00:01:05.05,83.98,-66.89,1962.40,10.73,-25.61,-59.51,-10.05,7.65,24.90,29.80,47.14,
01/01/2000,00:01:05.05,264.16,-140.62,1948.24,-18.66,-5.98,-32.26,-8.70,7.05,24.00,29.80,47.14,
01/01/2000,00:01:05.05,270.02,20.02,1512.21,-39.94,5.85,4.70,-8.85,6.60,24.90,29.80,47.15,
01/01/2000,00:01:05.05,116.21,149.90,1028.32,-40.55,28.48,27.07,-7.35,6.90,24.90,29.95,47.16,
01/01/2000,00:01:05.05,-15.14,229.49,693.36,-25.98,29.45,31.40,-11.10,4.65,25.65,29.80,47.16,
01/01/2000,00:01:05.05,-100.59,242.19,537.60,-11.52,23.96,31.89,-8.70,5.55,25.20,29.95,47.17,
01/01/2000,00:01:05.05,-192.87,200.20,512.21,-3.78,17.38,20.67,-8.55,3.75,24.90,29.61,47.18,
01/01/2000,00:01:05.05,-250.49,142.58,520.02,-2.20,12.01,5.37,-8.85,3.75,25.35,29.80,47.18,
01/01/2000,00:01:05.05,-211.43,72.75,499.02,-3.90,5.85,-5.85,-7.95,5.25,26.25,29.95,47.19,
01/01/2000,00:01:05.05,-165.53,13.18,497.07,-9.51,-1.71,-14.45,-8.85,2.70,26.10,29.95,47.20,
01/01/2000,00:01:05.05,-125.98,-2.44,494.14,-10.43,-5.06,-15.18,-9.00,2.85,24.75,29.95,47.20,
01/01/2000,00:01:05.05,-116.70,-6.84,492.68,-6.95,-2.99,-8.05,-8.25,2.85,25.50,29.66,47.21,
01/01/2000,00:01:05.05,-128.42,-27.83,580.57,-6.34,-0.49,-6.40,-7.05,3.45,25.35,29.80,47.22,
01/01/2000,00:01:05.05,-145.51,9.77,662.11,-3.60,6.04,2.99,-8.70,1.65,26.25,29.61,47.22,
01/01/2000,00:01:05.05,-194.34,24.41,754.39,-5.85,-3.05,7.01,-8.25,4.05,25.50,29.95,47.23,
01/01/2000,00:01:05.05,-260.74,29.30,825.20,-6.52,-6.95,4.21,-8.70,3.30,25.20,29.75,47.24,
01/01/2000,00:01:05.05,-219.24,-0.49,961.91,-8.41,-17.62,3.48,-9.00,4.80,25.80,29.90,47.24,
01/01/2000,00:01:05.05,-169.92,-2.93,1085.45,-9.63,-11.10,6.65,-7.50,2.40,24.45,29.80,47.25,
01/01/2000,00:01:05.05,-161.13,-9.77,1254.39,-7.80,-7.13,18.48,-8.85,2.70,25.65,29.80,47.25,
01/01/2000,00:01:05.05,-143.07,15.62,1451.17,-15.30,-1.77,24.88,-8.25,4.05,24.75,29.75,47.26,
01/01/2000,00:01:05.05,30.76,122.56,1353.03,-18.35,-19.21,34.21,-9.00,1.65,26.55,29.95,47.03,
01/01/2000,00:01:05.05,-134.28,76.66,1673.83,13.72,-8.90,24.82,-10.95,-0.15,25.50,29.66,47.04,
01/01/2000,00:01:05.05,92.29,-78.61,1843.75,15.24,4.76,17.50,-9.45,-0.15,25.20,29.75,47.04,
01/01/2000,00:01:05.05,90.33,-75.68,1636.72,8.17,13.54,27.99,-10.05,0.30,24.60,29.90,47.05,
01/01/2000,00:01:05.05,30.27,-26.37,1375.98,2.99,12.44,16.28,-10.20,0.90,24.45,29.66,47.06,
01/01/2000,00:01:05.05,106.93,-7.81,1191.89,5.61,9.33,8.90,-9.45,-0.15,24.75,29.95,47.06,
01/01/2000,00:01:05.05,45.41,9.28,1073.73,9.09,14.57,2.74,-11.10,0.75,26.10,29.66,47.07,
01/01/2000,00:01:05.05,46.39,9.28,944.82,4.33,14.76,-8.35,-7.95,-0.15,25.50,29.80,47.08,
01/01/2000,00:01:05.05,12.70,17.58,781.74,-4.88,15.12,-10.49,-9.30,0.30,24.60,29.47,47.08,
01/01/2000,00:01:05.05,-5.37,30.27,598.63,-10.43,7.01,-7.68,-9.60,0.30,24.90,29.95,47.09,
01/01/2000,00:01:05.05,28.81,34.67,468.26,-5.49,4.63,-0.24,-9.30,0.00,25.35,30.09,47.10,
01/01/2000,00:01:05.05,-18.55,55.18,414.55,4.02,8.54,8.96,-9.30,0.00,25.65,29.75,47.10,
01/01/2000,00:01:05.05,-80.57,65.92,434.57,7.56,11.65,20.24,-8.55,0.00,26.85,29.61,47.11,
01/01/2000,00:01:05.05,-131.35,61.52,452.64,9.82,10.85,19.27,-8.10,0.30,25.35,29.95,47.12,
01/01/2000,00:01:05.05,-190.92,46.39,470.21,11.83,2.50,11.77,-9.45,1.35,25.50,29.95,47.12,
01/01/2000,00:01:05.05,-145.51,13.67,531.74,14.45,8.60,5.43,-8.10,1.05,26.10,29.56,47.13,
01/01/2000,00:01:05.05,-164.06,-15.14,672.36,23.78,9.63,4.57,-8.10,1.50,25.65,29.80,47.13,
01/01/2000,00:01:05.05,-83.98,-34.18,745.12,27.13,4.15,-5.61,-8.55,1.05,28.20,29.56,47.14,
01/01/2000,00:01:05.05,-35.16,-44.92,956.54,30.61,-0.79,-5.55,-8.70,1.35,25.80,29.95,47.15,
01/01/2000,00:01:05.05,-39.55,-12.70,1209.47,32.99,-6.46,-2.93,-9.30,3.45,24.90,29.80,47.15,
01/01/2000,00:01:05.05,-80.08,60.55,1416.50,26.95,-4.33,0.91,-9.60,1.50,26.85,29.66,47.16,
01/01/2000,00:01:05.05,-123.54,75.68,1557.62,18.60,-11.22,-10.73,-7.95,2.85,25.80,29.95,47.17,
01/01/2000,00:01:05.05,-131.84,70.80,1552.73,5.79,-15.30,-18.90,-7.95,2.40,27.30,29.80,47.17,
01/01/2000,00:01:05.05,-150.39,119.14,1495.61,8.11,-10.00,-24.70,-7.95,2.40,25.80,29.80,47.18,
01/01/2000,00:01:05.05,91.31,-30.76,1869.14,-9.09,-2.99,-47.26,-9.30,4.95,24.90,29.90,47.01,
01/01/2000,00:01:05.05,283.69,-12.21,1699.22,-24.02,3.17,-22.50,-9.30,3.75,26.10,29.61,47.01,
01/01/2000,00:01:05.05,178.71,95.21,1342.29,-24.70,31.59,12.99,-8.10,3.75,24.90,29.66,47.02,
01/01/2000,00:01:05.05,16.60,184.57,1060.06,-15.98,40.06,25.49,-8.10,3.75,25.35,29.90,47.03,
01/01/2000,00:01:05.05,-78.12,206.54,836.91,-14.63,32.56,25.37,-7.95,2.85,25.80,29.95,47.03,
01/01/2000,00:01:05.05,-186.04,217.77,645.51,-22.20,24.21,13.05,-7.95,4.35,26.55,29.75,47.04,
01/01/2000,00:01:05.05,-211.91,163.57,468.75,-21.71,15.79,0.24,-7.20,3.30,26.25,29.99,47.05,
01/01/2000,00:01:05.05,-208.01,119.63,362.79,-13.17,14.88,-8.54,-4.95,4.05,26.55,29.80,47.05,
01/01/2000,00:01:05.05,-187.99,48.34,326.66,-7.32,19.88,-11.65,-7.20,2.40,25.20,29.80,47.06,
01/01/2000,00:01:05.05,-147.95,8.30,381.35,-8.78,12.07,-13.05,-7.05,1.80,26.85,29.80,47.06,
01/01/2000,00:01:05.05,-118.65,-21.97,383.30,-13.84,2.99,-8.78,-6.00,2.10,26.55,29.95,47.07,
01/01/2000,00:01:05.05,-102.54,-21.97,371.58,-9.15,-4.51,-4.57,-7.35,1.05,26.40,29.66,47.08,
01/01/2000,00:01:05.05,-104.98,-13.67,419.43,-1.83,-1.95,2.56,-5.10,3.45,28.20,29.80,47.08,
01/01/2000,00:01:05.05,-150.39,-3.91,562.01,9.51,1.59,9.33,-7.50,2.40,27.75,29.90,47.09,
01/01/2000,00:01:05.05,-237.79,35.64,772.95,9.27,2.20,14.45,-6.00,2.40,26.25,29.95,47.09,
01/01/2000,00:01:05.05,-315.43,17.58,977.54,1.83,-1.40,10.24,-7.80,3.00,27.15,29.95,47.10,
01/01/2000,00:01:05.05,-261.72,1.46,1072.75,-4.82,-7.20,5.37,-6.45,2.40,26.25,29.95,47.11,
01/01/2000,00:01:05.05,-265.62,-2.44,1194.34,-8.72,-8.78,8.72,-7.20,1.35,25.80,29.75,47.11,
01/01/2000,00:01:05.05,-258.79,8.79,1312.50,-9.57,-3.23,10.85,-6.75,1.35,27.00,29.95,47.12,
01/01/2000,00:01:05.05,-234.86,29.79,1528.32,-12.07,5.24,8.05,-7.05,1.05,27.15,29.95,47.12,
01/01/2000,00:01:05.05,-302.73,-23.44,1756.35,-33.66,7.38,11.46,-7.35,1.05,27.45,29.80,47.13,
01/01/2000,00:01:05.05,-201.17,43.95,1507.81,-56.28,-25.85,-2.07,-6.45,0.15,25.50,29.80,47.14,
01/01/2000,00:01:05.05,-76.66,75.68,1390.62,-33.29,-31.16,3.29,-6.60,0.00,26.10,29.80,47.14,
01/01/2000,00:01:05.05,-72.27,28.32,1589.84,2.26,-7.13,14.39,-6.30,0.00,26.10,29.75,47.15,
01/01/2000,00:01:05.05,-66.89,-56.15,1677.73,15.18,20.18,25.98,-8.70,0.90,26.55,29.99,47.08,
01/01/2000,00:01:05.05,-54.69,-35.64,1484.86,0.79,13.41,12.26,-7.50,0.15,27.00,29.80,47.09,
01/01/2000,00:01:05.05,39.06,-1.95,1248.54,-3.60,8.41,2.56,-7.80,0.30,26.10,29.80,47.09,
01/01/2000,00:01:05.05,57.62,-6.84,1110.84,7.38,13.84,4.51,-6.30,-0.30,25.65,29.80,47.10,
01/01/2000,00:01:05.05,1.46,-19.53,972.17,5.91,25.55,9.76,-7.35,-0.30,25.65,29.95,47.11,
01/01/2000,00:01:05.05,-17.09,0.00,734.86,-6.52,19.51,9.45,-7.35,0.30,26.85,29.61,47.11,
01/01/2000,00:01:05.05,-20.51,44.92,500.00,-15.12,13.96,9.27,-6.60,-1.80,27.45,29.95,47.12,
01/01/2000,00:01:05.05,8.30,58.59,280.76,-10.73,10.43,11.28,-6.00,-0.90,28.50,29.66,47.12,
01/01/2000,00:01:05.05,-38.09,56.64,229.98,2.62,7.20,24.27,-4.95,-1.65,26.25,29.80,47.13,
01/01/2000,00:01:05.05,-142.09,61.04,326.17,7.44,6.22,24.94,-5.70,0.15,26.25,29.61,47.13,
01/01/2000,00:01:05.05,-168.95,32.23,424.80,3.72,-4.94,17.62,-5.70,-2.40,27.00,30.09,47.14,
01/01/2000,00:01:05.05,-183.59,-8.79,477.05,-6.04,-10.98,9.45,-4.65,-1.65,27.75,29.80,47.15,
01/01/2000,00:01:05.05,-185.06,-12.70,575.68,-4.76,-25.43,2.56,-6.00,-0.90,27.00,29.99,47.15,
01/01/2000,00:01:05.05,-189.45,-68.36,719.73,0.24,-30.49,-5.79,-5.70,-2.10,27.75,29.80,47.16,
01/01/2000,00:01:05.05,-161.62,-136.23,907.71,2.80,-23.17,-6.40,-5.55,0.00,26.85,29.80,47.16,
01/01/2000,00:01:05.05,-138.18,-81.05,1004.88,4.27,-22.32,-6.40,-5.55,-1.80,26.85,29.95,47.17,
01/01/2000,00:01:05.05,-126.95,-9.77,1114.75,18.66,-18.23,-4.02,-5.70,-0.15,26.55,29.56,47.17,
01/01/2000,00:01:05.05,-181.64,50.29,1304.20,31.77,-7.13,-2.38,-8.10,0.30,26.40,29.95,47.18,
01/01/2000,00:01:05.05,-158.69,34.67,1402.34,30.37,-6.52,-5.73,-7.05,-0.30,26.10,29.80,47.18,
01/01/2000,00:01:05.05,-169.43,9.77,1465.33,22.62,-4.39,-7.32,-8.10,1.80,25.65,29.95,47.19,
01/01/2000,00:01:05.05,-219.24,91.31,1456.05,17.26,-10.00,-13.48,-6.60,1.50,25.65,29.95,47.20,
01/01/2000,00:01:05.05,-288.09,104.98,1640.62,28.29,-9.51,-34.70,-7.80,1.05,24.90,29.95,47.20,
01/01/2000,00:01:05.05,-80.57,20.51,1875.49,28.96,2.38,-47.93,-9.75,1.35,26.55,29.80,47.21,
01/01/2000,00:01:05.05,151.37,5.86,1821.78,10.49,12.93,-36.04,-9.30,2.25,26.10,29.80,47.21,
01/01/2000,00:01:05.05,-79.59,247.56,914.06,-3.84,33.11,31.95,-6.75,1.35,27.00,29.80,47.02,
01/01/2000,00:01:05.05,-181.15,249.51,722.17,-2.07,28.84,21.95,-5.85,0.30,27.45,29.80,47.02,
01/01/2000,00:01:05.05,-255.86,192.38,627.44,-4.09,21.22,8.17,-6.30,3.00,27.90,29.75,47.03,
01/01/2000,00:01:05.05,-240.72,135.74,502.44,-11.77,10.30,-11.52,-6.00,1.65,27.30,29.80,47.03,
01/01/2000,00:01:05.05,-186.52,64.94,384.28,-7.99,-1.04,-17.87,-5.40,3.60,27.30,29.80,47.04,
01/01/2000,00:01:05.05,-131.35,-4.88,366.70,-0.85,5.12,-15.43,-4.05,2.70,26.40,29.66,47.05,
01/01/2000,00:01:05.05,-132.81,-59.57,372.07,2.13,11.10,-9.94,-5.10,2.25,28.20,29.80,47.05,
01/01/2000,00:01:05.05,-131.84,-49.80,402.34,0.67,8.90,-4.21,-5.55,0.75,27.45,29.47,47.06,
01/01/2000,00:01:05.05,-143.55,-35.64,482.91,-5.12,3.60,-1.52,-5.40,2.10,28.50,29.90,47.06,
01/01/2000,00:01:05.05,-154.30,-7.81,548.83,-5.91,-5.37,-2.87,-5.40,2.10,27.75,29.90,47.07,
01/01/2000,00:01:05.05,-232.91,16.60,661.13,-6.71,-4.45,-4.02,-3.60,3.00,27.45,29.90,47.07,
01/01/2000,00:01:05.05,-287.60,-3.91,871.09,-1.52,-9.27,-7.38,-5.40,2.40,27.75,29.95,47.08,
01/01/2000,00:01:05.05,-313.96,-21.97,1104.00,-11.34,-13.66,-5.49,-5.10,3.00,26.40,29.56,47.08,
01/01/2000,00:01:05.05,-301.27,-37.60,1249.51,-17.38,-14.51,-5.98,-6.00,2.10,25.50,29.80,47.09,
01/01/2000,00:01:05.05,-275.39,-32.71,1330.57,-20.61,-12.99,2.13,-4.95,3.60,27.75,29.75,47.10,
01/01/2000,00:01:05.05,-253.91,8.79,1456.05,-34.21,-8.35,3.35,-6.45,1.35,28.50,29.95,47.10,
01/01/2000,00:01:05.05,-216.80,19.04,1629.39,-43.54,-7.99,7.80,-5.85,1.50,26.40,29.80,47.11,
01/01/2000,00:01:05.05,-229.98,46.88,1481.93,-60.79,-4.76,13.48,-6.75,0.45,27.00,29.80,47.11,
01/01/2000,00:01:05.05,-104.98,120.61,1202.64,-51.28,-23.90,11.52,-4.35,-0.30,26.40,29.80,47.12,
01/01/2000,00:01:05.05,-111.82,124.02,1290.53,-14.51,-29.94,10.43,-6.75,-1.65,26.55,29.61,47.12,
01/01/2000,00:01:05.05,17.58,-35.64,1646.97,14.15,-13.35,9.63,-6.30,-1.80,25.65,29.95,47.13,
01/01/2000,00:01:05.05,60.55,-119.63,1739.26,15.37,-0.85,26.04,-7.80,-0.30,26.85,29.80,47.13,
01/01/2000,00:01:05.05,-46.88,-43.46,1531.25,1.52,0.12,27.26,-7.35,-0.75,25.65,29.90,47.14,
01/01/2000,00:01:05.05,27.83,-12.21,1266.11,3.54,-4.45,13.35,-7.50,-1.35,26.25,29.80,47.14,
01/01/2000,00:01:05.05,-15.62,37.60,1039.55,17.50,8.29,18.23,-7.20,-2.40,27.30,29.99,47.08,
01/01/2000,00:01:05.05,-68.85,71.29,850.10,15.24,13.23,15.49,-7.50,-0.45,27.75,29.61,47.09,
01/01/2000,00:01:05.05,-101.07,100.59,644.53,13.41,18.29,14.27,-6.75,0.45,26.25,29.95,47.09,
01/01/2000,00:01:05.05,-160.16,106.45,536.62,10.00,11.89,14.94,-7.20,-2.10,27.75,29.80,47.10,
01/01/2000,00:01:05.05,-137.70,96.19,475.10,6.34,-2.62,9.88,-5.85,-1.05,26.40,29.90,47.11,
01/01/2000,00:01:05.05,-107.42,54.69,433.11,8.48,-2.07,18.48,-6.75,-1.35,25.50,29.75,47.11,
01/01/2000,00:01:05.05,-156.74,32.23,399.90,10.30,5.49,25.30,-5.40,-1.35,27.00,29.56,47.12,
01/01/2000,00:01:05.05,-192.87,37.11,388.18,14.15,7.38,29.88,-8.10,0.00,26.40,29.80,47.12,
01/01/2000,00:01:05.05,-221.68,44.92,446.78,22.44,8.90,25.49,-6.45,-0.90,26.55,29.47,47.13,
01/01/2000,00:01:05.05,-223.14,47.36,537.60,20.73,3.29,17.07,-6.00,-0.90,27.30,29.80,47.13,
01/01/2000,00:01:05.05,-212.40,21.48,734.86,28.54,-4.33,8.48,-5.55,-0.30,27.15,29.99,47.14,
01/01/2000,00:01:05.05,-189.45,28.32,883.30,28.41,-7.99,-0.67,-6.45,1.35,26.25,29.66,47.14,
01/01/2000,00:01:05.05,-106.93,33.20,1113.28,39.33,-10.79,-1.71,-6.00,-0.45,27.75,29.90,47.15,
01/01/2000,00:01:05.05,-151.37,68.36,1370.12,43.72,1.46,-2.13,-5.55,-0.30,26.10,29.56,47.15,
01/01/2000,00:01:05.05,-190.43,73.24,1622.07,30.67,-0.49,-14.33,-6.45,0.90,27.00,29.99,47.16,
01/01/2000,00:01:05.05,-135.74,36.13,1621.09,8.29,-7.99,-26.83,-5.10,3.00,25.35,29.80,47.16,
01/01/2000,00:01:05.05,-170.41,128.42,1461.43,0.00,-6.95,-34.94,-7.05,1.80,27.15,29.99,47.17,
01/01/2000,00:01:05.05,-201.17,151.86,1454.10,17.44,-10.00,-47.87,-5.85,1.50,27.15,29.80,47.17,
01/01/2000,00:01:05.05,-104.49,72.27,1870.12,23.35,-14.51,-73.54,-6.75,3.60,26.25,29.80,47.18,
01/01/2000,00:01:05.05,125.98,-90.33,2111.82,-8.60,-13.78,-76.46,-8.10,2.70,27.90,29.95,47.18,
01/01/2000,00:01:05.05,281.74,-14.16,1786.62,-37.99,-0.91,-41.95,-5.85,3.75,24.90,29.66,47.19,
01/01/2000,00:01:05.05,164.06,162.60,1213.87,-37.93,30.55,-3.72,-7.20,2.85,26.25,29.66,47.19,
01/01/2000,00:01:05.05,43.95,234.86,827.64,-22.26,45.06,14.39,-6.45,3.30,26.25,29.90,47.20,
01/01/2000,00:01:05.05,4.39,220.70,621.58,-7.50,53.41,20.55,-6.30,2.25,27.90,29.80,47.20,
01/01/2000,00:01:05.05,-187.01,213.87,507.81,-2.87,40.12,20.43,-4.65,2.10,26.25,29.90,47.21,
01/01/2000,00:01:05.05,-209.96,-3.91,509.28,-4.21,-2.62,-29.27,-3.90,0.45,28.80,29.95,47.03,
01/01/2000,00:01:05.05,-170.90,-64.45,553.71,-5.85,-0.79,-28.78,-3.30,1.50,27.15,30.09,47.03,
01/01/2000,00:01:05.05,-166.50,-75.20,581.05,-5.30,-0.79,-22.44,-4.80,4.65,26.85,29.95,47.04,
01/01/2000,00:01:05.05,-176.27,-65.92,600.10,-10.37,1.59,-18.60,-3.30,1.80,26.85,29.90,47.04,
01/01/2000,00:01:05.05,-167.97,-50.29,600.10,-10.18,5.00,-11.71,-4.80,3.00,27.45,29.56,47.05,
01/01/2000,00:01:05.05,-182.13,-35.64,613.28,-5.73,8.29,-5.55,-3.45,2.85,27.75,30.09,47.05,
01/01/2000,00:01:05.05,-233.40,-11.23,685.55,-2.32,7.38,3.60,-2.40,2.85,26.55,29.75,47.06,
01/01/2000,00:01:05.05,-312.50,-0.49,781.74,-7.26,4.21,1.28,-3.90,3.30,27.75,29.80,47.06,
01/01/2000,00:01:05.05,-340.33,27.83,923.34,-12.56,-4.70,-3.35,-3.60,1.80,27.45,29.66,47.07,
01/01/2000,00:01:05.05,-299.80,10.25,1065.43,-16.46,-11.71,-8.11,-3.90,2.40,26.55,30.09,47.07,
01/01/2000,00:01:05.05,-228.03,22.95,1227.54,-21.77,-9.88,-0.98,-3.60,2.70,27.15,29.80,47.08,
01/01/2000,00:01:05.05,-271.97,0.49,1501.95,-23.48,-14.27,4.76,-5.10,1.05,27.15,29.47,47.08,
01/01/2000,00:01:05.05,-298.83,-21.48,1551.76,-45.98,-18.60,4.21,-2.85,1.50,26.40,29.75,47.09,
01/01/2000,00:01:05.05,-109.86,7.81,1308.11,-45.37,-34.15,2.56,-4.35,1.50,26.10,29.66,47.09,
01/01/2000,00:01:05.05,-54.20,48.83,1407.23,-9.33,-31.46,17.99,-4.65,0.90,26.55,29.95,47.10,
01/01/2000,00:01:05.05,-59.57,-49.32,1829.59,22.50,-17.87,23.66,-5.70,0.90,26.55,29.95,47.10,
01/01/2000,00:01:05.05,-0.98,-152.83,1937.01,13.96,1.95,35.43,-6.60,0.30,27.15,29.80,47.11,
01/01/2000,00:01:05.05,-46.39,-85.94,1642.09,-3.78,-8.48,36.52,-5.70,0.90,26.55,29.90,47.11,
01/01/2000,00:01:05.05,-18.55,-31.74,1273.44,-8.90,-5.98,29.21,-5.10,0.30,25.65,29.56,47.12,
01/01/2000,00:01:05.05,-10.25,31.25,1036.13,5.49,2.50,28.90,-5.70,1.35,27.30,30.28,47.12,
01/01/2000,00:01:05.05,-50.29,67.87,884.77,23.23,9.88,30.49,-4.65,-1.65,25.80,29.80,47.13,
01/01/2000,00:01:05.05,-149.41,30.76,874.02,26.22,11.16,21.83,-6.45,0.45,26.25,29.99,47.13,
01/01/2000,00:01:05.05,-187.99,46.39,735.84,4.09,-1.52,9.82,-5.40,-0.15,27.75,30.09,47.14,
01/01/2000,00:01:05.05,-143.07,57.62,518.55,-5.55,-11.77,5.06,-3.90,0.15,24.45,29.90,47.14,
01/01/2000,00:01:05.05,-116.21,64.45,325.20,8.35,1.34,10.79,-5.85,-0.30,26.10,29.80,47.09,
01/01/2000,00:01:05.05,-166.50,45.90,412.60,15.91,5.12,18.23,-6.45,-0.15,27.30,29.80,47.10,
01/01/2000,00:01:05.05,-243.16,52.25,482.42,10.43,1.71,19.63,-5.40,-1.65,27.30,29.66,47.10,
01/01/2000,00:01:05.05,-254.88,47.85,497.07,7.68,-3.17,10.73,-5.40,-1.35,26.55,29.66,47.11,
01/01/2000,00:01:05.05,-268.55,40.04,576.17,14.02,-2.62,8.11,-6.45,-0.15,25.20,29.90,47.11,
01/01/2000,00:01:05.05,-277.83,17.09,756.35,18.72,-3.48,0.37,-6.00,-0.90,26.55,29.99,47.12,
01/01/2000,00:01:05.05,-232.91,10.25,943.85,21.04,-0.06,-4.39,-5.70,1.35,25.80,29.75,47.12,
01/01/2000,00:01:05.05,-182.13,30.27,1104.98,24.33,-2.44,-9.88,-6.45,0.90,25.80,29.56,47.13,
01/01/2000,00:01:05.05,-153.32,59.57,1355.47,26.04,2.01,-6.71,-4.95,2.10,24.75,30.09,47.13,
01/01/2000,00:01:05.05,-186.04,90.33,1524.41,16.59,5.85,-5.24,-6.30,0.00,26.85,29.56,47.14,
01/01/2000,00:01:05.05,-219.24,115.23,1431.15,3.23,1.83,-21.59,-6.30,1.05,25.65,29.95,47.14,
01/01/2000,00:01:05.05,-138.18,110.84,1213.38,-2.93,-6.04,-39.76,-5.10,0.30,24.90,29.56,47.15,
01/01/2000,00:01:05.05,-83.50,150.88,1117.19,13.41,-20.55,-44.15,-5.40,1.65,25.50,29.75,47.15,
01/01/2000,00:01:05.05,-91.31,127.93,1408.20,42.38,-36.28,-60.98,-3.60,2.25,26.10,29.80,47.16,
01/01/2000,00:01:05.05,64.45,-96.19,2056.64,43.72,-29.51,-66.16,-7.05,2.70,25.35,29.90,47.16,
01/01/2000,00:01:05.05,252.93,-199.71,2187.99,-1.65,-16.22,-37.99,-7.05,4.20,24.15,29.95,47.17,
01/01/2000,00:01:05.05,175.29,17.58,1663.09,-38.66,8.48,7.13,-6.75,4.35,25.20,29.56,47.17,
01/01/2000,00:01:05.05,82.52,217.77,1037.11,-37.93,26.10,29.57,-6.00,3.30,24.75,29.80,47.18,
01/01/2000,00:01:05.05,-71.78,309.08,726.07,-22.62,28.84,31.95,-6.45,2.85,24.45,29.80,47.18,
01/01/2000,00:01:05.05,-201.66,311.04,634.77,-11.46,15.30,22.74,-5.70,1.65,24.00,29.95,47.18,
01/01/2000,00:01:05.05,-280.27,246.58,581.05,-8.48,7.87,3.90,-6.00,2.40,25.20,29.95,47.19,
01/01/2000,00:01:05.05,-293.95,174.32,520.51,-1.59,8.23,-14.57,-5.40,1.35,24.45,29.80,47.19,
01/01/2000,00:01:05.05,-270.02,77.64,478.52,-3.23,15.06,-25.12,-4.95,2.40,24.00,29.80,47.20,
01/01/2000,00:01:05.05,-208.50,9.77,485.35,-3.29,11.22,-29.51,-5.85,1.05,26.85,29.75,47.20,
01/01/2000,00:01:05.05,-125.49,-27.34,489.26,-3.78,13.35,-28.60,-5.55,3.45,25.65,29.80,47.21,
01/01/2000,00:01:05.05,-175.78,-25.88,678.71,-1.34,13.17,-3.84,-4.05,3.00,25.65,29.47,47.04,
01/01/2000,00:01:05.05,-239.26,2.93,790.53,-5.55,2.32,-5.61,-5.40,3.60,25.80,29.80,47.05,
01/01/2000,00:01:05.05,-267.09,43.95,924.80,-7.38,2.20,-8.41,-3.90,3.30,26.25,29.61,47.05,
01/01/2000,00:01:05.05,-302.25,52.25,1115.72,-4.88,3.96,-11.77,-4.35,3.00,27.45,29.61,47.06,
01/01/2000,00:01:05.05,-290.04,22.46,1244.63,-21.71,5.30,-12.68,-4.35,1.50,25.65,29.66,47.06,
01/01/2000,00:01:05.05,-291.50,33.69,1218.75,-37.87,0.79,-14.63,-4.65,1.65,28.80,29.95,47.06,
01/01/2000,00:01:05.05,-224.61,21.48,1225.10,-45.61,-13.78,-13.60,-6.00,1.35,25.50,30.09,47.07,
01/01/2000,00:01:05.05,-156.25,13.18,1343.26,-43.29,-5.49,5.30,-4.65,0.90,24.75,29.75,47.07,
01/01/2000,00:01:05.05,-245.12,50.78,1341.80,-49.45,-0.24,22.20,-5.40,1.35,27.75,29.95,47.08,
01/01/2000,00:01:05.05,-214.36,103.03,1087.89,-43.29,-16.52,8.66,-6.00,0.45,26.25,29.90,47.08,
01/01/2000,00:01:05.05,-116.21,87.40,1146.00,-3.96,-28.54,9.88,-4.35,0.00,26.10,29.80,47.09,
01/01/2000,00:01:05.05,-41.02,-21.00,1649.41,32.26,-20.61,10.67,-5.40,-0.90,25.80,29.95,47.09,
01/01/2000,00:01:05.05,18.07,-185.55,1937.01,35.85,1.34,23.66,-5.85,-0.30,25.65,29.80,47.10,
01/01/2000,00:01:05.05,-80.57,-119.14,1740.23,7.44,12.87,29.94,-4.95,-0.45,26.25,29.80,47.10,
01/01/2000,00:01:05.05,-44.92,-62.01,1357.91,-6.40,-5.67,17.87,-5.40,0.15,25.20,29.95,47.11,
01/01/2000,00:01:05.05,21.97,9.77,1121.58,0.91,-1.65,17.99,-5.55,-0.30,24.90,29.95,47.11,
01/01/2000,00:01:05.05,-84.47,66.89,939.45,15.24,10.24,22.74,-6.00,0.90,26.55,29.56,47.12,
01/01/2000,00:01:05.05,-119.14,85.94,815.92,19.33,10.98,21.16,-5.10,0.75,25.65,29.95,47.12,
01/01/2000,00:01:05.05,-211.43,135.25,700.68,17.68,13.17,17.74,-4.95,0.15,25.80,29.80,47.12,
01/01/2000,00:01:05.05,-267.58,129.88,597.66,11.95,3.48,8.96,-5.55,-1.05,24.60,29.80,47.13,
01/01/2000,00:01:05.05,-226.56,107.91,484.38,11.52,-2.38,5.37,-6.00,0.45,25.80,29.90,47.13,
01/01/2000,00:01:05.05,-153.81,73.24,448.73,18.35,0.00,10.30,-4.95,-0.45,25.50,29.66,47.14,
01/01/2000,00:01:05.05,-180.66,24.41,502.44,20.30,9.15,23.78,-5.40,-0.45,26.25,29.90,47.14,
01/01/2000,00:01:05.05,-205.57,17.09,491.70,19.33,20.91,25.61,-6.45,0.90,26.25,29.47,47.15,
01/01/2000,00:01:05.05,-175.29,35.64,479.98,20.37,11.04,18.05,-7.05,1.05,26.10,29.80,47.10,
01/01/2000,00:01:05.05,-168.46,29.30,634.77,29.39,11.77,18.05,-4.95,-0.45,27.30,29.75,47.10,
01/01/2000,00:01:05.05,-139.65,10.25,857.91,30.24,0.49,6.65,-4.05,1.05,26.85,29.90,47.11,
01/01/2000,00:01:05.05,-104.49,17.09,1164.06,26.89,-10.37,-0.55,-6.45,0.15,27.30,29.95,47.11,
01/01/2000,00:01:05.05,-94.24,40.04,1399.90,23.48,-6.52,-5.43,-4.80,1.05,26.85,29.56,47.12,
01/01/2000,00:01:05.05,-158.20,79.10,1521.00,26.95,-0.98,-6.04,-5.10,1.80,25.35,29.95,47.12,
01/01/2000,00:01:05.05,-205.08,88.38,1532.71,14.70,-1.59,-21.28,-5.55,3.45,24.90,29.56,47.13,
01/01/2000,00:01:05.05,-141.60,82.52,1474.12,0.49,8.66,-36.04,-6.30,2.70,26.40,29.80,47.13,
01/01/2000,00:01:05.05,-163.09,157.23,1335.45,-9.27,10.67,-36.22,-6.30,2.25,24.90,29.95,47.14,
01/01/2000,00:01:05.05,-259.77,167.48,1203.12,-4.76,-7.74,-56.65,-5.55,2.70,26.10,29.66,47.14,
01/01/2000,00:01:05.05,-241.21,152.34,1253.42,0.37,-32.56,-90.79,-4.95,2.85,27.00,29.95,47.14,
01/01/2000,00:01:05.05,35.16,56.64,1462.40,9.33,-29.76,-94.39,-4.20,4.80,25.50,29.75,47.15,
01/01/2000,00:01:05.05,250.98,3.42,1536.13,5.37,-11.59,-56.16,-6.45,4.35,27.00,29.90,47.15,
01/01/2000,00:01:05.05,103.03,42.48,1336.91,-8.11,12.50,-13.41,-5.70,6.00,25.50,29.56,47.16,
01/01/2000,00:01:05.05,-62.99,139.16,967.77,-22.56,-1.04,-7.62,-5.40,6.00,26.25,29.66,47.16,
01/01/2000,00:01:05.05,-57.62,143.55,704.10,-26.77,-15.43,-2.99,-5.10,5.40,25.35,29.80,47.17,
01/01/2000,00:01:05.05,-105.96,131.84,530.76,-18.72,-2.32,9.02,-6.30,4.95,25.65,29.80,47.17,
01/01/2000,00:01:05.05,-239.26,89.84,516.11,-2.50,-0.85,14.88,-4.65,6.30,26.25,29.80,47.17,
01/01/2000,00:01:05.05,-339.84,60.06,603.03,-2.87,-3.05,6.40,-5.55,3.45,26.10,29.95,47.18,
01/01/2000,00:01:05.05,-278.81,16.11,593.26,-15.30,-6.40,-7.32,-7.20,4.80,26.55,29.90,47.18,
01/01/2000,00:01:05.05,-199.71,-5.37,535.64,-18.78,-6.83,-2.38,-6.30,3.75,25.35,29.66,47.19,
01/01/2000,00:01:05.05,-167.97,-12.21,498.05,-14.70,-3.60,6.89,-6.45,5.25,25.20,29.80,47.19,
01/01/2000,00:01:05.05,-196.29,-1.95,506.35,-9.33,4.82,15.49,-5.70,4.35,26.55,29.80,47.20,
01/01/2000,00:01:05.05,-222.17,37.60,551.76,-3.72,7.62,13.84,-7.05,3.45,26.10,29.95,47.20,
01/01/2000,00:01:05.05,-235.35,65.43,664.06,-0.37,10.67,18.17,-5.85,3.75,27.15,29.56,47.20,
01/01/2000,00:01:05.05,-322.75,60.55,1194.82,-15.43,-15.79,-7.87,-6.75,3.30,26.55,29.80,47.05,
01/01/2000,00:01:05.05,-249.02,36.62,1284.18,-21.83,-3.35,-0.12,-8.25,3.30,25.80,29.95,47.06,
01/01/2000,00:01:05.05,-187.50,46.88,1387.70,-23.29,-4.45,7.32,-7.35,3.00,25.65,29.95,47.06,
01/01/2000,00:01:05.05,-214.84,29.30,1511.23,-29.02,-0.12,16.10,-7.05,1.80,25.35,29.66,47.07,
01/01/2000,00:01:05.05,-221.68,9.77,1473.63,-37.87,6.89,22.20,-5.70,2.10,26.25,29.95,47.07,
01/01/2000,00:01:05.05,-164.55,59.08,1345.21,-44.51,-15.06,21.89,-6.30,0.75,25.65,29.90,47.08,
01/01/2000,00:01:05.05,-246.09,108.89,1328.12,-27.50,-19.27,24.70,-7.95,0.15,26.25,29.90,47.08,
01/01/2000,00:01:05.05,-284.18,76.17,1475.59,-2.32,-11.28,11.28,-6.30,0.00,26.10,29.95,47.08,
01/01/2000,00:01:05.05,-57.13,-22.95,1514.16,3.41,-5.49,6.83,-7.05,-0.75,26.10,29.80,47.09,
01/01/2000,00:01:05.05,-38.09,-40.04,1408.69,15.18,8.11,16.28,-6.30,0.00,25.65,29.90,47.09,
01/01/2000,00:01:05.05,-83.98,-59.08,1287.11,12.44,12.26,12.44,-6.75,-0.90,27.75,29.47,47.10,
01/01/2000,00:01:05.05,-28.32,-47.85,1161.13,15.98,4.02,11.34,-7.50,-0.15,27.00,29.90,47.10,
01/01/2000,00:01:05.05,-38.09,-25.39,1020.02,14.94,1.95,10.00,-7.95,-0.45,27.75,29.66,47.11,
01/01/2000,00:01:05.05,-77.15,-6.84,860.35,15.37,10.18,7.74,-6.30,0.75,26.40,29.80,47.11,
01/01/2000,00:01:05.05,-125.49,-12.70,734.86,11.16,12.01,11.40,-7.50,-1.35,26.25,29.90,47.11,
01/01/2000,00:01:05.05,-145.02,17.09,611.82,9.15,11.59,6.04,-5.70,0.15,25.20,29.95,47.12,
01/01/2000,00:01:05.05,-140.14,27.83,483.40,4.21,2.62,6.65,-6.00,1.65,26.55,29.95,47.12,
01/01/2000,00:01:05.05,-80.08,18.55,430.18,4.27,0.43,18.23,-6.60,0.00,26.40,29.42,47.13,
01/01/2000,00:01:05.05,-95.70,20.51,428.71,7.44,9.82,32.26,-6.00,0.15,28.50,29.80,47.13,
01/01/2000,00:01:05.05,-139.65,43.46,402.83,11.40,14.63,41.52,-5.10,1.80,26.40,29.47,47.13,
01/01/2000,00:01:05.05,-202.64,46.39,464.84,11.89,19.15,36.04,-5.70,0.15,26.25,29.95,47.14,
01/01/2000,00:01:05.05,-229.00,59.57,572.75,7.38,14.88,25.73,-5.10,-0.30,26.10,29.80,47.14,
01/01/2000,00:01:05.05,-196.78,83.01,660.64,1.83,-4.70,3.17,-5.10,0.00,27.45,29.66,47.15,
01/01/2000,00:01:05.05,-144.04,37.60,745.12,16.89,-22.68,-6.89,-5.55,0.00,26.10,29.99,47.15,
01/01/2000,00:01:05.05,-138.67,46.88,1503.42,37.38,-8.11,-12.26,-6.75,0.45,27.75,29.90,47.04,
01/01/2000,00:01:05.05,-180.66,87.40,1524.90,19.21,-23.96,-31.46,-6.45,0.90,27.75,29.80,47.04,
01/01/2000,00:01:05.05,-79.59,36.13,1482.91,8.96,-29.63,-45.55,-6.45,1.65,26.55,29.90,47.05,
01/01/2000,00:01:05.05,-61.52,27.34,1434.08,11.95,-21.77,-33.72,-6.75,1.65,27.75,29.61,47.05,
01/01/2000,00:01:05.05,-135.25,67.87,1534.18,24.21,-8.96,-31.52,-7.05,2.25,26.40,29.75,47.05,
01/01/2000,00:01:05.05,-241.21,75.20,1736.82,21.77,-16.28,-45.24,-6.30,3.00,25.65,29.66,47.06,
01/01/2000,00:01:05.05,-109.38,1.46,1874.51,2.13,-16.22,-55.67,-8.25,5.25,25.20,29.56,47.06,
01/01/2000,00:01:05.05,122.07,-32.71,1735.84,-22.26,-10.24,-37.13,-6.75,4.35,25.50,29.66,47.07,
01/01/2000,00:01:05.05,122.07,63.48,1382.81,-29.39,10.18,-4.33,-6.30,5.40,25.35,29.80,47.07,
01/01/2000,00:01:05.05,-34.18,156.74,1008.30,-27.74,19.57,17.87,-7.35,4.20,25.35,29.95,47.07,
01/01/2000,00:01:05.05,-125.98,188.96,766.11,-19.51,25.67,23.23,-7.05,2.70,25.35,29.90,47.08,
01/01/2000,00:01:05.05,-220.70,180.18,621.09,-8.78,24.63,16.04,-6.60,4.95,26.40,29.66,47.08,
01/01/2000,00:01:05.05,-265.14,146.97,580.08,-5.43,15.24,7.32,-6.75,4.35,25.50,29.80,47.09,
01/01/2000,00:01:05.05,-262.70,78.12,535.16,-13.96,12.62,-7.56,-8.55,2.25,26.40,29.47,47.09,
01/01/2000,00:01:05.05,-229.49,32.23,460.94,-14.09,7.13,-14.70,-7.05,1.80,26.10,29.80,47.10,
01/01/2000,00:01:05.05,-186.04,-8.30,443.36,-14.70,10.18,-18.23,-5.55,3.75,25.35,29.61,47.10,
01/01/2000,00:01:05.05,-158.69,-42.48,422.36,-15.49,10.18,-11.22,-6.00,2.85,25.50,29.90,47.10,
01/01/2000,00:01:05.05,-152.83,-50.78,440.92,-8.84,8.96,-8.84,-6.45,1.35,27.30,29.95,47.11,
01/01/2000,00:01:05.05,-118.16,-62.99,532.23,-10.37,12.32,-4.94,-4.65,1.35,28.05,29.66,47.11,
01/01/2000,00:01:05.05,-183.59,-50.29,597.17,-12.01,4.51,2.13,-4.35,2.25,26.85,29.75,47.12,
01/01/2000,00:01:05.05,-189.94,-19.53,644.53,-14.88,-0.98,6.34,-6.60,2.70,27.90,29.47,47.12,
01/01/2000,00:01:05.05,-229.00,23.44,699.71,-9.82,0.49,8.41,-4.35,3.00,26.40,29.95,47.12,
01/01/2000,00:01:05.05,-275.88,45.41,873.54,-3.48,-5.00,5.55,-6.00,0.45,27.00,29.75,47.13,
01/01/2000,00:01:05.05,-247.56,31.25,1143.55,-2.62,-15.24,6.52,-5.85,1.80,27.15,29.95,47.13,
01/01/2000,00:01:05.05,-303.22,-1.95,1541.99,-19.02,-5.12,15.30,-5.40,1.65,27.75,29.61,47.09,
01/01/2000,00:01:05.05,-296.39,-30.76,1510.74,-39.51,-8.54,5.61,-6.60,-0.30,27.45,29.61,47.08,
01/01/2000,00:01:05.05,1.46,-14.16,1295.41,-38.23,-33.41,-0.55,-6.45,0.45,26.55,29.42,47.08,
01/01/2000,00:01:05.05,108.40,72.75,1497.56,4.82,-37.56,26.16,-5.10,-0.30,27.90,29.80,47.09,
01/01/2000,00:01:05.05,-47.36,-73.24,2059.57,40.67,-12.62,40.18,-5.85,0.75,26.40,29.95,47.09,
01/01/2000,00:01:05.05,-12.21,-153.32,2123.05,13.54,7.74,40.61,-7.35,0.00,24.90,29.42,47.10,
01/01/2000,00:01:05.05,-29.30,-105.47,1716.31,-19.76,-4.88,36.83,-8.25,0.15,27.30,29.80,47.10,
01/01/2000,00:01:05.05,47.85,-22.46,1224.61,-27.01,-2.56,30.55,-7.05,-0.30,25.35,29.47,47.10,
01/01/2000,00:01:05.05,119.14,33.20,938.96,-4.94,8.05,39.82,-7.50,-2.40,26.55,29.99,47.11,
01/01/2000,00:01:05.05,-50.78,93.26,900.88,12.87,21.10,46.04,-5.85,-0.75,26.40,29.80,47.11,
01/01/2000,00:01:05.05,-171.39,107.91,851.56,9.39,15.55,32.56,-7.80,-2.25,26.10,29.95,47.12,
01/01/2000,00:01:05.05,-197.27,96.68,726.07,0.85,3.78,12.56,-6.60,-2.25,26.85,29.75,47.12,
01/01/2000,00:01:05.05,-125.98,66.89,534.18,-2.26,-3.29,7.44,-6.75,-3.30,25.80,29.80,47.12,
01/01/2000,00:01:05.05,-101.07,61.52,436.04,6.83,1.89,6.83,-7.20,-1.65,25.80,29.66,47.13,
01/01/2000,00:01:05.05,-125.98,38.57,435.55,8.35,6.28,13.90,-7.50,-2.40,26.25,29.66,47.13,
01/01/2000,00:01:05.05,-155.76,13.18,429.20,4.02,7.80,12.38,-6.45,-2.10,26.55,29.90,47.14,
01/01/2000,00:01:05.05,-171.39,39.06,406.74,0.12,8.41,11.04,-7.35,-1.50,26.85,29.80,47.14,
01/01/2000,00:01:05.05,-150.39,39.55,415.04,8.11,7.32,9.70,-6.60,-3.00,27.15,29.75,47.14,
01/01/2000,00:01:05.05,-184.57,51.27,499.02,15.30,8.60,6.65,-4.80,-1.80,26.40,29.61,47.15,
01/01/2000,00:01:05.05,-205.08,32.23,648.44,21.46,-4.27,-2.80,-6.45,-2.10,27.00,29.99,47.15,
01/01/2000,00:01:05.05,-166.50,5.37,791.50,25.73,-13.72,-14.76,-4.95,-3.60,27.30,29.90,47.16,
01/01/2000,00:01:05.05,-107.42,-2.93,1007.81,32.13,-18.11,-20.85,-5.85,-1.05,26.10,29.56,47.16,
01/01/2000,00:01:05.05,-66.41,8.30,1275.39,39.57,-11.71,-22.87,-5.55,-2.25,26.85,29.90,47.16,
01/01/2000,00:01:05.05,-108.89,12.21,1506.84,34.63,-5.49,-19.82,-7.05,-1.50,26.10,29.66,47.17,
01/01/2000,00:01:05.05,-156.74,24.90,1524.90,22.80,-6.40,-24.33,-7.05,0.00,27.15,29.80,47.17,
01/01/2000,00:01:05.05,-104.49,72.27,1337.89,17.50,-24.82,-52.13,-6.75,1.35,25.50,29.95,47.06,
01/01/2000,00:01:05.05,-95.70,58.11,1628.91,29.76,-16.22,-59.15,-8.85,1.05,26.10,29.75,47.07,
01/01/2000,00:01:05.05,29.30,-0.49,1829.59,32.13,-5.67,-52.93,-7.50,2.10,25.20,29.80,47.07,
01/01/2000,00:01:05.05,211.43,-13.18,1806.15,10.73,2.01,-29.09,-8.55,4.20,27.15,29.75,47.08,
01/01/2000,00:01:05.05,173.34,105.47,1547.85,-12.74,9.63,-0.55,-9.00,4.35,25.50,29.75,47.08,
01/01/2000,00:01:05.05,93.75,239.26,1129.88,-27.56,7.07,19.88,-6.75,3.30,26.25,29.66,47.08,
01/01/2000,00:01:05.05,-49.32,310.55,768.55,-24.82,10.49,24.57,-6.75,3.60,25.80,29.80,47.09,
01/01/2000,00:01:05.05,-200.68,318.85,554.69,-11.77,16.71,17.38,-5.85,3.00,26.10,29.95,47.09,
01/01/2000,00:01:05.05,-248.05,247.56,528.32,-1.10,15.79,-2.74,-7.05,1.05,26.85,29.80,47.10,
01/01/2000,00:01:05.05,-234.38,135.74,513.67,-3.66,3.29,-15.61,-7.50,2.40,26.55,29.47,47.10,
01/01/2000,00:01:05.05,-193.36,53.22,462.40,-10.55,-0.98,-26.59,-6.45,3.30,26.25,29.75,47.10,
01/01/2000,00:01:05.05,-147.95,4.88,387.21,-7.44,-4.21,-25.49,-7.20,2.85,25.50,29.90,47.11,
01/01/2000,00:01:05.05,-109.38,-49.80,429.20,-2.50,-0.12,-22.01,-7.20,2.40,26.25,29.95,47.11,
01/01/2000,00:01:05.05,-94.24,-79.10,505.37,-0.24,5.61,-13.35,-6.75,2.10,27.00,29.75,47.11,
01/01/2000,00:01:05.05,-131.84,-59.08,585.45,0.18,9.27,-5.73,-6.75,2.10,25.80,29.75,47.12,
01/01/2000,00:01:05.05,-213.87,-36.62,722.17,-1.40,4.82,-4.94,-7.80,2.25,26.10,29.66,47.12,
01/01/2000,00:01:05.05,-271.97,-21.00,867.68,-3.35,-2.38,-7.56,-6.45,3.30,25.80,29.56,47.13,
01/01/2000,00:01:05.05,-338.87,10.25,1003.42,-10.43,-5.06,-14.88,-7.20,3.30,24.75,29.80,47.13,
01/01/2000,00:01:05.05,-345.70,23.44,1077.64,-20.67,-7.32,-24.51,-6.75,2.10,26.25,29.66,47.13,
01/01/2000,00:01:05.05,-277.83,8.30,1104.49,-26.40,-10.73,-25.85,-6.45,1.65,25.80,29.95,47.14,
01/01/2000,00:01:05.05,-187.01,-29.30,1141.60,-27.13,-9.15,-20.55,-6.45,3.30,27.75,29.80,47.14,
01/01/2000,00:01:05.05,-127.93,-25.39,1297.85,-24.76,-7.93,-4.21,-7.95,2.10,25.80,29.61,47.14,
01/01/2000,00:01:05.05,-151.86,-32.71,1515.14,-29.94,-0.85,9.63,-6.75,2.10,26.25,29.61,47.15,
01/01/2000,00:01:05.05,-171.88,34.67,1412.11,-35.61,4.63,18.54,-7.50,1.35,25.20,29.75,47.15,
01/01/2000,00:01:05.05,-211.91,166.50,1495.12,2.38,-24.02,14.94,-8.55,0.30,27.15,29.75,47.11,
01/01/2000,00:01:05.05,0.98,-82.52,1938.48,17.74,-8.17,-1.95,-8.85,-0.30,26.85,29.80,47.10,
01/01/2000,00:01:05.05,116.21,-145.51,1916.02,0.91,10.61,26.04,-8.25,-0.90,27.75,29.80,47.11,
01/01/2000,00:01:05.05,-27.83,-30.27,1556.15,-16.28,15.67,33.96,-7.20,1.35,25.50,29.61,47.11,
01/01/2000,00:01:05.05,57.13,31.74,1176.76,-17.56,11.71,30.12,-7.35,1.05,26.40,29.80,47.12,
01/01/2000,00:01:05.05,91.31,80.08,981.93,-5.73,15.06,31.77,-7.80,0.30,25.65,29.80,47.12,
01/01/2000,00:01:05.05,1.46,97.17,868.16,3.17,15.61,32.99,-7.50,-0.90,25.20,29.95,47.12,
01/01/2000,00:01:05.05,-70.80,89.36,720.21,5.55,16.59,29.70,-7.80,-1.50,26.10,29.90,47.13,
01/01/2000,00:01:05.05,-108.40,87.40,592.29,2.87,20.00,24.02,-6.00,-2.10,27.30,29.90,47.13,
01/01/2000,00:01:05.05,-77.15,73.73,456.54,1.59,11.77,19.27,-5.85,-0.30,26.40,29.61,47.13,
01/01/2000,00:01:05.05,-39.55,58.59,375.49,5.61,4.63,21.95,-5.40,-1.35,27.75,29.56,47.14,
01/01/2000,00:01:05.05,-61.52,40.53,347.17,4.51,4.63,28.48,-6.45,-1.65,25.50,29.80,47.14,
01/01/2000,00:01:05.05,-130.37,42.48,355.96,11.59,5.61,33.29,-7.05,-1.50,26.85,29.75,47.14,
01/01/2000,00:01:05.05,-139.65,49.32,390.62,13.66,2.38,33.96,-6.60,-1.80,26.10,29.75,47.15,
01/01/2000,00:01:05.05,-153.81,69.82,453.12,19.39,-0.73,30.06,-6.45,-1.65,27.00,29.80,47.15,
01/01/2000,00:01:05.05,-186.04,50.29,564.45,27.20,-3.96,17.50,-5.40,-2.10,27.00,29.66,47.16,
01/01/2000,00:01:05.05,-128.42,21.97,739.75,35.43,-16.89,5.30,-5.85,-0.75,26.40,29.61,47.16,
01/01/2000,00:01:05.05,-67.87,-4.39,991.21,43.54,-15.55,6.10,-7.05,-1.05,26.10,29.66,47.16,
01/01/2000,00:01:05.05,-65.43,16.11,1376.46,48.60,-9.63,7.50,-7.95,-1.35,28.05,29.80,47.17,
01/01/2000,00:01:05.05,-176.76,41.50,1673.83,38.35,2.32,5.79,-6.00,1.65,25.50,29.80,47.17,
01/01/2000,00:01:05.05,-229.00,86.43,1627.44,9.27,-2.50,-16.04,-6.45,0.90,27.75,29.80,47.17,
01/01/2000,00:01:05.05,-138.18,103.03,1366.70,-8.11,-16.04,-35.85,-6.75,2.40,26.25,29.95,47.18,
01/01/2000,00:01:05.05,-120.12,117.19,1199.71,-5.30,-11.22,-36.77,-7.05,0.75,26.40,29.80,47.18,
01/01/2000,00:01:05.05,-228.52,166.50,1234.38,11.10,-6.83,-45.67,-6.60,-0.30,25.65,29.95,47.18,
01/01/2000,00:01:05.05,-255.37,170.90,1419.92,23.96,-20.61,-73.41,-7.50,1.35,25.80,29.61,47.19,
01/01/2000,00:01:05.05,244.14,80.57,1586.91,-17.62,-0.91,-41.16,-7.50,5.25,26.25,29.66,47.09,
01/01/2000,00:01:05.05,207.03,172.36,1169.92,-30.55,-1.34,-10.06,-7.50,3.60,25.20,29.56,47.09,
01/01/2000,00:01:05.05,112.30,186.52,901.86,-26.04,5.49,10.98,-7.50,4.35,25.50,29.75,47.10,
01/01/2000,00:01:05.05,-30.27,202.15,731.45,-18.66,18.11,24.45,-6.75,3.60,25.80,29.56,47.10,
01/01/2000,00:01:05.05,-169.43,216.31,610.84,-17.07,18.29,21.59,-7.20,3.30,26.25,29.75,47.11,
01/01/2000,00:01:05.05,-235.84,192.38,502.93,-18.23,8.78,5.91,-7.05,2.25,26.10,29.75,47.11,
01/01/2000,00:01:05.05,-224.12,127.93,428.71,-13.05,1.16,-3.23,-8.70,0.90,27.30,29.42,47.11,
01/01/2000,00:01:05.05,-189.45,79.59,412.60,-9.45,4.02,-8.72,-5.55,1.80,26.40,29.80,47.12,
01/01/2000,00:01:05.05,-165.04,43.95,451.66,-4.94,2.74,-12.26,-6.60,2.25,26.10,29.47,47.12,
01/01/2000,00:01:05.05,-142.09,11.23,472.17,-6.16,-3.78,-10.49,-7.95,2.10,25.80,29.61,47.12,
01/01/2000,00:01:05.05,-166.50,17.58,504.39,-6.95,-5.30,-13.17,-6.45,2.85,26.55,29.80,47.13,
01/01/2000,00:01:05.05,-204.59,21.00,569.34,-7.01,-8.84,-13.48,-5.55,3.75,26.10,29.95,47.13,
01/01/2000,00:01:05.05,-216.31,36.13,708.50,-1.10,-11.83,-18.66,-6.75,2.85,25.80,29.80,47.13,
01/01/2000,00:01:05.05,-246.58,31.74,840.82,1.59,-8.72,-18.60,-7.80,3.00,25.35,29.95,47.14,
01/01/2000,00:01:05.05,-236.82,-1.95,1036.13,-0.37,-17.07,-24.51,-9.00,2.10,27.00,29.80,47.14,
01/01/2000,00:01:05.05,-200.68,-69.82,1254.39,-3.35,-18.29,-19.76,-6.45,3.60,25.80,29.61,47.14,
01/01/2000,00:01:05.05,-141.60,-102.54,1391.60,-15.55,-16.65,-10.37,-7.35,3.00,25.65,29.95,47.15,
01/01/2000,00:01:05.05,-90.33,-71.78,1456.05,-26.89,-7.38,9.15,-8.25,1.65,27.30,29.90,47.15,
01/01/2000,00:01:05.05,-88.87,13.18,1490.23,-39.51,-0.49,26.65,-8.55,3.00,26.40,29.80,47.15,
01/01/2000,00:01:05.05,-83.01,81.54,1365.23,-48.11,7.50,41.59,-8.25,3.60,27.00,29.66,47.16,
01/01/2000,00:01:05.05,-65.92,166.50,1190.92,-39.76,5.55,54.63,-8.10,0.75,28.20,29.56,47.16,
01/01/2000,00:01:05.05,-319.34,223.14,1166.50,-10.12,-16.34,46.22,-7.50,0.15,26.55,29.95,47.16,
01/01/2000,00:01:05.05,-274.90,130.37,1436.52,19.82,-30.61,6.71,-7.95,-0.90,26.55,29.61,47.17,
01/01/2000,00:01:05.05,43.95,-53.71,1682.13,27.68,-13.72,-5.49,-7.20,-0.45,24.45,29.56,47.17,
01/01/2000,00:01:05.05,45.90,-71.78,1512.21,7.07,11.46,22.32,-8.70,-0.15,26.25,29.95,47.14,
01/01/2000,00:01:05.05,57.13,-13.18,1136.23,2.68,-0.85,17.62,-9.00,0.45,24.75,29.75,47.13,
01/01/2000,00:01:05.05,8.79,7.32,1004.88,7.26,-0.91,13.96,-9.30,-0.75,25.65,29.80,47.13,
01/01/2000,00:01:05.05,8.30,14.65,900.88,5.43,-2.93,7.26,-8.85,0.00,25.35,29.75,47.13,
01/01/2000,00:01:05.05,-38.09,37.60,771.48,5.18,-0.30,16.28,-7.35,1.05,24.15,29.61,47.14,
01/01/2000,00:01:05.05,-104.49,43.95,685.06,1.16,-3.05,13.29,-7.95,-0.15,26.25,29.61,47.14,
01/01/2000,00:01:05.05,-107.91,53.71,566.41,-5.55,-5.73,9.39,-8.70,0.90,24.75,29.95,47.14,
01/01/2000,00:01:05.05,-87.89,48.83,474.61,-5.24,1.34,9.33,-9.30,-0.30,25.65,29.75,47.15,
01/01/2000,00:01:05.05,-49.32,7.81,455.08,7.20,7.99,22.50,-9.00,0.90,25.20,29.80,47.15,
01/01/2000,00:01:05.05,-107.42,-16.11,500.98,9.33,13.96,35.55,-8.70,-0.45,25.80,29.66,47.16,
01/01/2000,00:01:05.05,-218.75,-9.28,517.58,2.93,13.17,33.05,-8.10,0.00,25.35,29.61,47.16,
01/01/2000,00:01:05.05,-309.08,45.41,486.33,9.27,18.05,14.02,-7.20,-0.90,24.75,29.61,47.16,
01/01/2000,00:01:05.05,-170.90,-18.07,668.46,23.41,24.63,1.52,-8.10,-1.05,24.90,29.61,47.17,
01/01/2000,00:01:05.05,-62.99,-91.80,972.17,23.29,14.39,14.45,-7.20,0.15,25.20,29.61,47.17,
01/01/2000,00:01:05.05,-181.64,-14.16,1176.76,12.44,2.68,16.59,-7.05,-0.75,24.90,29.61,47.17,
01/01/2000,00:01:05.05,-264.65,89.84,1355.47,0.85,-10.12,-6.22,-9.00,-0.45,26.25,29.80,47.18,
01/01/2000,00:01:05.05,-186.52,135.25,1387.21,3.60,-0.79,-31.52,-7.05,0.30,24.90,29.90,47.18,
01/01/2000,00:01:05.05,64.94,97.66,1404.79,12.68,16.34,-38.84,-9.45,0.90,25.80,29.56,47.18,
01/01/2000,00:01:05.05,64.45,81.54,1423.83,10.91,18.78,-29.45,-7.95,0.15,27.00,29.61,47.19,
01/01/2000,00:01:05.05,-18.55,119.63,1374.51,4.70,17.74,-34.27,-7.80,1.05,26.85,29.61,47.19,
01/01/2000,00:01:05.05,-47.36,151.37,1283.69,3.29,6.22,-53.23,-6.60,0.30,27.15,29.66,47.19,
01/01/2000,00:01:05.05,-7.32,64.45,1441.41,15.24,-2.50,-73.60,-6.45,0.90,25.50,29.80,47.20,
01/01/2000,00:01:05.05,192.87,-9.77,1626.95,17.56,-13.17,-70.30,-7.05,1.80,26.40,29.80,47.20,
01/01/2000,00:01:05.05,259.77,-19.53,1684.57,4.02,-1.22,-34.27,-8.70,2.85,25.80,29.80,47.20,
01/01/2000,00:01:05.05,36.13,91.80,1439.94,-13.35,10.61,-6.22,-7.50,3.60,25.20,29.80,47.21,
01/01/2000,00:01:05.05,-220.21,172.85,621.58,-22.32,5.43,3.41,-6.30,2.70,26.10,29.80,47.11,
01/01/2000,00:01:05.05,-297.85,168.95,472.17,-12.50,6.46,-3.35,-7.20,1.35,24.75,29.90,47.12,
01/01/2000,00:01:05.05,-302.25,78.61,448.24,-7.93,2.80,-19.33,-7.05,2.25,26.10,29.61,47.12,
01/01/2000,00:01:05.05,-270.51,21.48,436.52,-1.16,8.66,-20.85,-6.00,2.10,25.80,29.75,47.12,
01/01/2000,00:01:05.05,-231.45,-24.90,452.15,-6.04,1.77,-28.17,-6.30,1.80,27.15,29.66,47.13,
01/01/2000,00:01:05.05,-126.46,-71.29,458.50,-3.90,-6.22,-27.93,-6.30,3.45,25.65,29.80,47.13,
01/01/2000,00:01:05.05,-66.89,-73.73,467.77,-1.52,0.79,-17.74,-7.20,1.65,27.30,29.61,47.13,
01/01/2000,00:01:05.05,-75.20,-99.61,579.59,8.05,3.78,-4.45,-5.70,1.35,28.50,29.95,47.14,
01/01/2000,00:01:05.05,-108.40,-71.29,666.99,10.73,5.98,6.95,-6.45,2.10,26.55,29.99,47.14,
01/01/2000,00:01:05.05,-209.47,-30.76,807.62,12.74,9.82,10.37,-5.40,2.85,27.00,29.61,47.14,
01/01/2000,00:01:05.05,-300.29,0.98,884.28,6.65,2.01,8.23,-5.70,3.30,27.00,29.66,47.15,
01/01/2000,00:01:05.05,-315.43,-21.97,1039.55,3.84,-2.07,1.59,-5.70,2.10,25.80,29.90,47.15,
01/01/2000,00:01:05.05,-230.47,-57.13,1169.43,-6.89,-0.73,1.10,-6.30,3.45,26.10,29.56,47.15,
01/01/2000,00:01:05.05,-247.07,-60.06,1282.71,-18.23,-5.30,10.49,-6.00,2.40,25.50,29.90,47.16,
01/01/2000,00:01:05.05,-272.95,-24.41,1438.48,-29.70,-11.04,15.06,-5.40,3.30,27.30,29.75,47.16,
01/01/2000,00:01:05.05,-261.72,0.98,1585.94,-38.29,-3.48,15.12,-5.70,1.65,28.05,29.61,47.16,
01/01/2000,00:01:05.05,-166.50,40.04,1410.16,-53.35,-4.45,21.52,-5.85,3.45,27.45,29.80,47.16,
01/01/2000,00:01:05.05,-87.89,101.56,1229.98,-34.51,-9.09,34.45,-6.60,1.80,26.85,29.90,47.17,
01/01/2000,00:01:05.05,-203.12,152.34,1401.37,7.87,-2.26,39.02,-6.30,-0.75,26.40,29.66,47.17,
01/01/2000,00:01:05.05,-158.20,26.86,1819.34,32.44,7.87,28.35,-6.60,0.75,26.85,29.42,47.17,
01/01/2000,00:01:05.05,-114.75,-66.41,1958.01,22.93,22.68,31.34,-7.05,-0.30,26.85,29.90,47.18,
01/01/2000,00:01:05.05,-112.30,-29.30,1671.39,-8.11,15.18,21.65,-5.10,0.30,26.40,29.61,47.18,
01/01/2000,00:01:05.05,18.55,-15.62,1298.83,-15.00,5.43,10.12,-6.30,0.00,26.85,29.80,47.18,
01/01/2000,00:01:05.05,36.62,-5.37,1067.38,-4.27,6.40,9.76,-6.60,0.30,25.65,29.95,47.19,
01/01/2000,00:01:05.05,43.95,-8.30,847.66,4.09,16.95,18.90,-5.70,-2.40,28.80,29.80,47.16,
01/01/2000,00:01:05.05,-22.46,0.98,724.12,0.98,12.93,17.01,-5.10,-1.80,27.15,29.95,47.16,
01/01/2000,00:01:05.05,-72.75,24.41,547.36,-10.91,4.57,7.87,-4.80,-1.50,26.85,29.90,47.16,
01/01/2000,00:01:05.05,-3.91,-10.25,426.76,-14.39,1.52,9.09,-4.65,-1.65,27.75,29.90,47.17,
01/01/2000,00:01:05.05,4.39,-20.51,341.31,-11.22,3.72,15.43,-5.55,-2.25,27.45,29.90,47.17,
01/01/2000,00:01:05.05,-19.53,-4.88,239.75,-7.74,8.90,23.29,-4.80,-0.30,26.40,29.56,47.17,
01/01/2000,00:01:05.05,-91.31,26.86,236.82,4.63,-0.67,25.12,-6.45,-0.45,26.55,29.56,47.17,
01/01/2000,00:01:05.05,-110.84,47.85,283.69,11.65,0.55,26.10,-4.35,-1.05,28.20,29.90,47.18,
01/01/2000,00:01:05.05,-166.02,82.52,358.40,18.60,-16.65,17.38,-4.65,-2.40,27.30,29.56,47.18,
01/01/2000,00:01:05.05,-213.87,63.96,524.90,26.52,-23.54,6.46,-5.70,-2.10,27.00,29.80,47.18,
01/01/2000,00:01:05.05,-151.86,39.06,756.84,37.99,-36.65,-5.06,-5.55,-1.05,26.10,29.80,47.19,
01/01/2000,00:01:05.05,-84.47,26.86,1163.57,51.10,-28.66,-0.73,-5.40,-1.35,25.50,29.56,47.19,
01/01/2000,00:01:05.05,-184.57,6.35,1588.38,50.55,-12.62,11.95,-6.45,-1.35,26.25,29.61,47.19,
01/01/2000,00:01:05.05,-308.59,46.39,1698.73,23.54,-9.94,1.65,-7.20,0.15,26.55,29.47,47.19,
01/01/2000,00:01:05.05,-246.09,81.05,1515.62,2.74,-25.79,-14.57,-7.05,0.30,25.65,29.80,47.20,
01/01/2000,00:01:05.05,-150.88,94.73,1318.36,1.59,-19.76,-17.80,-7.80,1.50,27.15,29.66,47.20,
01/01/2000,00:01:05.05,-204.59,168.95,1362.30,16.89,-13.84,-20.49,-7.20,1.35,26.55,29.80,47.20,
01/01/2000,00:01:05.05,-346.19,148.93,1730.47,30.67,-21.04,-41.22,-6.60,1.05,26.40,29.56,47.21,
01/01/2000,00:01:05.05,-167.48,15.62,2047.85,18.29,-20.18,-67.13,-7.20,0.90,26.55,29.56,47.21,
01/01/2000,00:01:05.05,166.50,-18.55,1961.43,-14.82,-11.28,-52.26,-6.60,4.65,26.10,29.80,47.21,
01/01/2000,00:01:05.05,218.75,106.93,1543.46,-34.51,5.00,-14.45,-7.80,3.45,25.35,29.47,47.22,
01/01/2000,00:01:05.05,126.46,219.24,1119.63,-32.13,16.71,10.18,-7.80,3.00,24.90,29.99,47.22,
01/01/2000,00:01:05.05,14.16,271.97,843.26,-22.87,33.54,23.90,-7.20,1.65,24.75,29.56,47.22,
01/01/2000,00:01:05.05,-138.67,285.16,667.97,-11.65,32.13,21.04,-7.80,0.00,26.85,29.66,47.23,
01/01/2000,00:01:05.05,-263.67,254.39,544.92,-10.73,18.35,-1.16,-7.80,1.50,25.65,29.66,47.23,
01/01/2000,00:01:05.05,-124.02,58.11,390.62,-5.91,3.66,-25.06,-6.75,1.35,26.25,29.95,47.14,
01/01/2000,00:01:05.05,-108.40,4.39,391.11,0.24,9.15,-25.79,-5.70,1.35,26.25,29.56,47.15,
01/01/2000,00:01:05.05,-84.47,-21.48,404.30,0.12,6.95,-19.39,-5.85,2.25,26.10,29.80,47.15,
01/01/2000,00:01:05.05,-83.50,-31.74,450.68,-0.18,8.72,-11.16,-6.30,2.25,25.35,29.95,47.15,
01/01/2000,00:01:05.05,-146.97,-0.49,538.57,6.89,1.83,-5.00,-7.35,2.70,28.65,29.95,47.16,
01/01/2000,00:01:05.05,-186.52,23.44,648.93,8.60,-5.61,-6.89,-6.00,2.40,25.50,29.75,47.16,
01/01/2000,00:01:05.05,-257.81,13.18,819.82,12.93,-4.94,-3.17,-4.95,2.40,26.25,29.75,47.16,
01/01/2000,00:01:05.05,-291.50,2.44,990.23,11.95,-3.54,-8.54,-4.35,3.45,24.90,29.95,47.17,
01/01/2000,00:01:05.05,-248.05,-43.95,1157.71,3.48,0.91,-10.18,-6.00,3.30,26.55,29.56,47.17,
01/01/2000,00:01:05.05,-216.31,-71.78,1310.06,-8.23,-1.22,-2.93,-6.75,4.35,27.30,29.75,47.17,
01/01/2000,00:01:05.05,-202.15,-52.73,1371.09,-25.85,-7.13,-0.12,-4.95,2.10,25.80,29.56,47.17,
01/01/2000,00:01:05.05,-182.62,-28.32,1445.31,-36.34,-7.32,11.10,-4.65,1.35,26.25,29.80,47.18,
01/01/2000,00:01:05.05,-169.92,12.70,1412.11,-46.16,0.12,20.79,-5.40,1.65,26.55,29.80,47.18,
01/01/2000,00:01:05.05,-72.27,108.89,1200.68,-35.85,-1.34,32.74,-6.00,0.15,25.50,29.99,47.18,
01/01/2000,00:01:05.05,-236.82,191.41,1256.35,-8.29,-9.33,37.07,-6.45,0.15,25.50,29.75,47.19,
01/01/2000,00:01:05.05,-287.60,113.77,1629.39,22.07,-14.02,2.68,-8.10,0.30,26.40,29.61,47.19,
01/01/2000,00:01:05.05,-18.07,-48.34,1786.13,28.66,0.30,-1.22,-5.70,-0.15,26.25,29.66,47.19,
01/01/2000,00:01:05.05,2.93,-88.87,1753.91,16.52,19.09,18.17,-7.35,0.30,26.10,29.47,47.20,
01/01/2000,00:01:05.05,-24.41,-32.23,1429.20,-0.49,14.70,14.70,-5.70,0.45,28.05,29.80,47.20,
01/01/2000,00:01:05.05,-20.51,-3.42,1166.50,-2.50,6.28,9.82,-5.40,-0.45,25.50,29.80,47.20,
01/01/2000,00:01:05.05,-32.23,25.88,981.45,2.44,11.71,10.30,-6.60,0.75,27.15,29.66,47.20,
01/01/2000,00:01:05.05,-54.69,41.50,841.31,7.20,14.57,8.96,-5.85,1.05,26.40,29.56,47.21,
01/01/2000,00:01:05.05,-88.38,41.99,741.70,10.43,15.79,14.70,-5.70,0.45,25.80,29.47,47.21,
01/01/2000,00:01:05.05,-136.23,65.92,618.65,1.34,9.51,13.60,-6.30,0.00,27.15,29.66,47.21,
01/01/2000,00:01:05.05,-95.21,10.25,405.27,5.73,8.90,18.90,-6.30,-0.30,26.40,29.80,47.13,
01/01/2000,00:01:05.05,-105.47,9.28,428.71,5.49,13.60,28.72,-5.85,1.80,26.40,29.66,47.13,
01/01/2000,00:01:05.05,-147.95,14.16,456.05,7.80,10.67,31.28,-5.55,-0.30,27.90,29.80,47.14,
01/01/2000,00:01:05.05,-189.45,28.81,481.93,10.30,6.34,28.23,-5.70,-0.15,28.50,29.75,47.14,
01/01/2000,00:01:05.05,-221.19,57.62,588.87,16.46,4.45,20.12,-4.35,0.00,26.85,29.61,47.14,
01/01/2000,00:01:05.05,-203.61,51.76,820.31,28.96,-4.70,14.70,-5.70,-0.45,26.55,29.90,47.15,
01/01/2000,00:01:05.05,-165.04,16.60,1125.00,29.88,-6.28,0.73,-4.80,0.00,27.15,29.80,47.15,
01/01/2000,00:01:05.05,-133.79,27.83,1431.15,23.84,-6.22,-3.78,-5.85,1.50,28.20,29.66,47.15,
01/01/2000,00:01:05.05,-168.46,78.12,1539.06,12.26,-2.13,-9.57,-4.95,2.85,26.25,29.47,47.16,
01/01/2000,00:01:05.05,-189.45,125.00,1421.88,-1.10,-8.41,-24.15,-5.55,1.50,27.15,29.80,47.16,
01/01/2000,00:01:05.05,-99.61,99.12,1296.88,-4.82,-14.51,-38.66,-6.30,2.25,27.45,29.56,47.16,
01/01/2000,00:01:05.05,-55.18,82.03,1247.56,-3.84,-10.98,-37.44,-5.10,2.70,27.90,29.66,47.16,
01/01/2000,00:01:05.05,-138.18,108.89,1262.70,7.01,-8.66,-37.50,-5.55,2.25,26.40,29.75,47.17,
01/01/2000,00:01:05.05,-234.86,103.52,1453.12,15.30,-19.02,-56.89,-6.75,2.85,27.30,29.66,47.17,
01/01/2000,00:01:05.05,-54.20,50.78,1696.78,17.38,-16.22,-69.57,-5.70,2.40,27.30,29.80,47.17,
01/01/2000,00:01:05.05,196.78,3.42,1697.75,1.59,1.04,-45.37,-4.95,3.60,26.55,29.56,47.18,
01/01/2000,00:01:05.05,120.12,105.47,1455.08,-15.85,17.32,-12.80,-7.20,4.05,27.00,29.80,47.18,
01/01/2000,00:01:05.05,-3.91,198.73,1091.80,-24.57,16.22,2.01,-5.85,3.75,26.40,29.66,47.18,
01/01/2000,00:01:05.05,-85.94,233.89,808.11,-20.24,11.95,3.60,-5.10,4.65,26.40,29.61,47.18,
01/01/2000,00:01:05.05,-139.16,242.19,601.56,-14.76,5.24,6.04,-5.40,3.30,27.30,29.75,47.19,
01/01/2000,00:01:05.05,-209.96,175.78,556.64,-4.76,8.11,3.66,-5.40,4.05,25.20,29.61,47.19,
01/01/2000,00:01:05.05,-262.70,118.65,525.39,-1.95,8.17,-8.96,-5.40,2.10,26.25,29.66,47.19,
01/01/2000,00:01:05.05,-250.00,59.08,491.21,-7.87,-0.06,-16.28,-5.55,4.20,26.10,29.47,47.19,
01/01/2000,00:01:05.05,-187.50,6.35,452.15,-6.40,-0.37,-13.23,-6.00,4.05,26.25,29.80,47.20,
01/01/2000,00:01:05.05,-186.52,-12.21,544.92,0.06,3.84,-1.10,-6.60,4.65,27.90,29.56,47.14,
01/01/2000,00:01:05.05,-260.25,-2.44,653.81,-0.91,2.20,-4.94,-6.45,2.85,28.50,29.80,47.14,
01/01/2000,00:01:05.05,-262.21,43.46,687.99,-5.00,-1.46,-11.89,-5.70,2.40,25.80,29.95,47.15,
01/01/2000,00:01:05.05,-283.20,47.36,780.76,-0.98,-7.07,-13.84,-6.30,2.70,26.40,29.56,47.15,
01/01/2000,00:01:05.05,-299.32,26.37,948.73,-2.07,-4.82,-16.16,-5.55,2.70,25.35,29.80,47.15,
01/01/2000,00:01:05.05,-292.48,-7.32,1091.31,-7.01,-10.18,-19.15,-6.00,2.40,27.00,29.56,47.16,
01/01/2000,00:01:05.05,-262.70,-48.83,1218.75,-12.01,-9.76,-18.41,-5.85,3.45,27.15,29.75,47.16,
01/01/2000,00:01:05.05,-186.04,-68.36,1324.71,-21.89,-6.65,-10.79,-5.55,4.20,28.20,29.80,47.16,
01/01/2000,00:01:05.05,-187.50,-55.18,1474.61,-28.84,-6.46,7.44,-5.70,2.85,27.00,29.66,47.16,
01/01/2000,00:01:05.05,-182.13,-22.95,1418.95,-36.59,-1.40,19.02,-7.20,0.90,25.20,29.66,47.17,
01/01/2000,00:01:05.05,-138.67,64.94,1293.95,-27.62,-3.48,41.46,-6.30,1.05,27.15,29.80,47.17,
01/01/2000,00:01:05.05,-239.75,216.31,1371.09,0.37,-3.05,36.10,-5.55,0.30,25.35,29.95,47.17,
01/01/2000,00:01:05.05,-269.04,107.91,1785.64,31.65,-4.88,15.61,-4.95,1.35,27.30,29.56,47.18,
01/01/2000,00:01:05.05,-176.27,-63.96,1965.33,18.35,11.04,8.17,-6.00,0.90,25.80,29.66,47.18,
01/01/2000,00:01:05.05,-72.27,-60.55,1642.58,-10.55,14.27,11.28,-6.00,0.90,26.55,29.56,47.18,
01/01/2000,00:01:05.05,-5.37,-30.76,1166.02,-19.94,12.56,12.38,-5.85,2.25,27.15,29.80,47.19,
01/01/2000,00:01:05.05,68.85,21.00,928.71,-6.52,18.48,17.26,-5.70,2.10,28.80,29.66,47.19,
01/01/2000,00:01:05.05,-7.32,37.60,900.88,9.21,23.96,22.13,-4.35,1.05,26.85,29.61,47.19,
01/01/2000,00:01:05.05,-96.19,25.88,890.14,4.21,15.98,17.32,-5.70,0.45,26.55,29.66,47.19,
01/01/2000,00:01:05.05,-106.93,22.46,750.49,-7.50,2.80,6.16,-5.10,0.00,28.20,29.56,47.20,
01/01/2000,00:01:05.05,-62.50,34.18,565.43,-10.55,0.37,8.72,-3.30,1.50,27.90,29.80,47.20,
01/01/2000,00:01:05.05,-54.69,33.69,427.73,-2.74,-1.28,15.73,-5.85,0.00,26.85,29.66,47.20,
01/01/2000,00:01:05.05,-67.38,29.30,396.97,1.59,5.79,21.10,-4.80,-0.30,27.15,29.66,47.21,
01/01/2000,00:01:05.05,-101.56,19.53,409.67,3.84,2.01,25.43,-5.10,1.05,27.15,29.66,47.21,
01/01/2000,00:01:05.05,-86.91,-7.81,456.05,2.20,2.13,30.98,-3.30,-0.30,27.45,29.90,47.21,
01/01/2000,00:01:05.05,-221.19,63.48,504.39,10.18,-5.73,24.63,-5.55,-1.80,27.45,29.66,47.13,
01/01/2000,00:01:05.05,-223.63,53.71,701.66,22.62,-12.07,13.35,-6.45,-1.65,28.50,29.90,47.13,
01/01/2000,00:01:05.05,-210.45,17.58,1006.35,33.66,-18.23,1.10,-4.80,0.30,28.20,29.80,47.13,
01/01/2000,00:01:05.05,-185.06,26.86,1302.73,33.35,-16.95,-5.55,-6.60,1.05,26.85,29.75,47.14,
01/01/2000,00:01:05.05,-226.56,72.75,1508.30,26.34,-12.38,-8.96,-5.10,1.05,24.90,29.37,47.14,
01/01/2000,00:01:05.05,-271.97,116.70,1510.25,16.22,-9.57,-25.00,-6.00,1.35,26.25,29.66,47.14,
01/01/2000,00:01:05.05,-193.85,107.91,1403.32,9.70,-13.84,-42.99,-5.10,1.05,26.40,29.66,47.15,
01/01/2000,00:01:05.05,-110.35,93.75,1314.94,12.44,-5.67,-46.34,-6.30,0.75,26.40,29.61,47.15,
01/01/2000,00:01:05.05,-171.88,125.98,1329.10,15.85,-10.67,-48.17,-6.60,1.05,26.85,29.75,47.15,
01/01/2000,00:01:05.05,-156.25,110.84,1541.99,30.67,-25.91,-65.37,-6.45,2.85,27.75,29.56,47.15,
01/01/2000,00:01:05.05,-6.84,35.64,1850.10,32.62,-2.62,-64.94,-6.45,4.80,25.80,29.75,47.15,
01/01/2000,00:01:05.05,183.59,10.25,1783.20,16.65,14.39,-40.55,-7.50,4.80,26.25,29.56,47.16,
01/01/2000,00:01:05.05,135.25,102.05,1525.39,-10.79,20.98,-4.39,-5.55,5.70,26.10,29.61,47.16,
01/01/2000,00:01:05.05,-10.74,201.17,1155.76,-25.67,16.52,12.01,-6.00,6.00,26.25,29.80,47.16,
01/01/2000,00:01:05.05,-83.50,253.42,853.52,-25.12,13.84,14.82,-5.85,4.65,27.15,29.61,47.17,
01/01/2000,00:01:05.05,-166.02,237.30,650.39,-20.79,15.49,16.59,-6.00,4.35,25.50,29.56,47.17,
01/01/2000,00:01:05.05,-258.79,207.52,504.39,-10.79,11.16,2.68,-4.95,3.30,27.00,29.61,47.17,
01/01/2000,00:01:05.05,-271.97,142.09,458.98,-6.16,9.33,-10.06,-6.30,3.00,25.65,29.80,47.17,
01/01/2000,00:01:05.05,-208.98,60.55,436.04,-0.98,0.79,-16.59,-5.55,3.00,27.90,29.56,47.18,
01/01/2000,00:01:05.05,-184.08,2.44,410.64,4.09,2.68,-16.40,-4.80,4.65,26.40,29.56,47.18,
01/01/2000,00:01:05.05,-154.30,-25.39,475.59,8.41,4.51,-12.74,-4.35,4.65,26.10,29.66,47.18,
01/01/2000,00:01:05.05,-139.65,-69.34,563.96,5.30,1.71,-6.46,-4.80,4.65,26.85,29.90,47.19,
01/01/2000,00:01:05.05,-196.78,-53.71,624.51,-4.15,-1.10,-4.82,-4.35,4.20,27.15,29.56,47.19,
01/01/2000,00:01:05.05,-211.43,-52.73,636.23,-5.49,0.00,-1.95,-5.40,3.30,25.80,29.66,47.19,
01/01/2000,00:01:05.05,-321.78,3.42,873.54,-9.70,-10.43,-9.21,-5.55,2.70,27.90,29.95,47.14,
01/01/2000,00:01:05.05,-296.39,-30.27,1043.95,-7.50,-16.28,-14.39,-5.10,4.65,27.90,29.66,47.14,
01/01/2000,00:01:05.05,-246.58,-56.15,1204.59,-14.21,-4.33,-5.12,-4.95,4.80,26.25,29.95,47.14,
01/01/2000,00:01:05.05,-282.23,-62.99,1263.67,-14.27,10.30,0.24,-5.40,4.05,27.00,29.56,47.14,
01/01/2000,00:01:05.05,-307.13,-27.83,1426.27,-17.38,11.83,2.26,-4.95,3.30,27.75,29.75,47.15,
01/01/2000,00:01:05.05,-205.08,16.60,1535.16,-31.65,12.50,11.28,-5.70,3.60,28.20,29.66,47.15,
01/01/2000,00:01:05.05,-45.90,152.34,1374.51,-38.78,14.21,32.01,-5.70,3.60,26.55,29.80,47.15,
01/01/2000,00:01:05.05,-276.86,330.08,1362.79,-12.50,2.80,45.18,-3.45,2.10,26.25,29.56,47.15,
01/01/2000,00:01:05.05,-404.30,178.22,1751.46,16.10,-18.54,16.46,-4.35,1.05,27.15,29.61,47.16,
01/01/2000,00:01:05.05,-106.45,-3.91,1829.10,8.11,-5.98,8.84,-4.95,1.65,27.75,29.61,47.16,
01/01/2000,00:01:05.05,-75.68,-0.49,1568.85,-5.24,8.90,26.52,-4.20,2.40,26.55,29.42,47.16,
01/01/2000,00:01:05.05,-90.33,42.97,1259.28,-6.59,15.37,25.43,-6.00,0.45,27.00,29.66,47.17,
01/01/2000,00:01:05.05,-60.55,80.08,1091.31,2.56,17.56,21.22,-5.40,0.45,28.50,29.66,47.17,
01/01/2000,00:01:05.05,-83.98,94.73,985.84,7.32,14.33,17.32,-3.60,1.50,27.45,29.75,47.17,
01/01/2000,00:01:05.05,-68.36,83.01,844.73,9.70,7.20,7.44,-4.80,1.80,27.15,29.61,47.17,
01/01/2000,00:01:05.05,-83.01,62.99,717.29,9.70,3.35,8.35,-5.10,1.80,27.45,29.75,47.18,
01/01/2000,00:01:05.05,-73.24,51.76,598.14,7.38,3.41,4.15,-7.50,0.45,28.05,29.95,47.18,
01/01/2000,00:01:05.05,-95.70,33.20,476.56,5.43,-0.73,4.15,-3.15,2.40,28.50,29.80,47.18,
01/01/2000,00:01:05.05,-102.05,27.83,455.08,9.15,2.26,8.60,-4.05,0.00,27.15,29.75,47.19,
01/01/2000,00:01:05.05,-103.03,18.07,466.80,12.62,4.63,11.40,-4.80,1.50,27.90,29.47,47.19,
01/01/2000,00:01:05.05,-115.23,-3.42,549.32,13.66,6.77,23.72,-3.60,1.50,26.10,29.90,47.19,
01/01/2000,00:01:05.05,-140.62,-21.48,600.10,10.24,12.50,22.50,-4.65,2.10,27.30,29.66,47.19,
01/01/2000,00:01:05.05,-180.18,15.14,586.91,5.06,8.84,23.90,-5.10,0.30,27.90,29.80,47.20,
01/01/2000,00:01:05.05,-217.77,27.83,622.07,7.01,-1.52,12.74,-4.20,2.10,27.75,29.66,47.20,
01/01/2000,00:01:05.05,-186.04,6.84,758.79,16.40,-5.55,3.41,-3.45,1.35,26.55,29.66,47.20,
01/01/2000,00:01:05.05,-180.18,89.84,1416.50,26.59,-5.55,1.46,-3.15,1.65,28.05,29.80,47.13,
01/01/2000,00:01:05.05,-261.72,120.12,1498.54,14.09,-4.82,-13.90,-4.95,3.30,28.50,29.47,47.13,
01/01/2000,00:01:05.05,-186.04,117.68,1396.00,3.29,-12.13,-27.62,-4.20,3.60,26.55,29.61,47.13,
01/01/2000,00:01:05.05,-100.10,130.86,1284.67,0.18,-16.16,-34.39,-5.70,1.65,26.55,29.66,47.14,
01/01/2000,00:01:05.05,-162.11,150.39,1230.47,4.76,-24.82,-46.65,-4.65,3.30,27.75,29.80,47.14,
01/01/2000,00:01:05.05,-129.88,95.21,1401.37,26.22,-41.28,-70.85,-4.65,4.05,27.30,29.90,47.14,
01/01/2000,00:01:05.05,91.80,-124.51,1892.09,33.66,-40.91,-72.68,-5.70,4.80,26.55,29.61,47.14,
01/01/2000,00:01:05.05,243.65,-140.62,2027.83,4.21,0.30,-24.33,-6.30,5.40,26.10,29.56,47.15,
01/01/2000,00:01:05.05,68.36,59.08,1621.09,-38.78,29.33,19.15,-6.75,7.05,26.25,29.47,47.15,
01/01/2000,00:01:05.05,-30.76,275.88,1079.10,-52.38,33.66,34.94,-5.70,4.80,27.00,29.66,47.15,
01/01/2000,00:01:05.05,-96.68,354.49,632.81,-33.72,54.02,48.84,-5.70,4.35,28.05,29.47,47.15,
01/01/2000,00:01:05.05,-289.06,364.26,492.68,-4.21,77.62,52.01,-4.35,2.70,27.90,29.75,47.16,
01/01/2000,00:01:05.05,-477.54,350.10,461.43,10.18,59.27,27.50,-2.40,2.40,28.80,29.80,47.16,
01/01/2000,00:01:05.05,-498.05,253.91,533.20,9.70,17.26,-9.02,-4.65,3.30,29.25,29.47,47.16,
01/01/2000,00:01:05.05,-367.19,144.04,589.84,-1.34,1.83,-37.44,-1.95,2.40,28.50,29.80,47.17,
01/01/2000,00:01:05.05,-257.32,52.73,579.10,-14.09,-6.52,-43.17,-2.40,4.35,27.75,29.80,47.17,
01/01/2000,00:01:05.05,-176.27,13.67,543.95,-17.99,-3.35,-38.66,-3.45,4.05,29.85,29.75,47.17,
01/01/2000,00:01:05.05,-148.93,11.72,455.57,-20.55,6.89,-30.73,-2.55,4.20,28.95,29.56,47.17,
01/01/2000,00:01:05.05,-146.48,-1.46,457.03,-17.01,2.26,-23.60,-2.55,2.70,27.45,29.80,47.18,
01/01/2000,00:01:05.05,-148.44,-0.98,486.33,-13.48,-4.76,-16.04,-1.65,2.40,29.55,29.95,47.18,
01/01/2000,00:01:05.05,-185.06,23.93,563.48,-8.78,-8.17,-12.07,-2.55,2.25,29.40,29.61,47.18,
01/01/2000,00:01:05.05,-219.24,40.04,706.54,-4.21,-21.71,-12.56,-3.90,2.40,27.30,29.90,47.18,
01/01/2000,00:01:05.05,-273.44,32.71,812.01,-0.24,-24.57,-16.34,-3.30,3.75,27.45,29.80,47.19,
01/01/2000,00:01:05.05,-242.68,-7.81,966.31,0.06,-31.04,-26.16,-2.70,3.60,28.80,29.90,47.19,
01/01/2000,00:01:05.05,-160.64,-62.99,1368.65,-16.89,-43.29,4.51,-5.70,2.40,28.05,29.56,47.14,
01/01/2000,00:01:05.05,-260.74,-21.97,1554.20,-23.29,-25.49,26.71,-6.00,2.10,26.25,29.80,47.14,
01/01/2000,00:01:05.05,-371.09,21.00,1476.56,-40.91,-13.72,21.95,-4.05,1.50,25.35,29.56,47.14,
01/01/2000,00:01:05.05,-202.15,103.03,1292.48,-37.13,-29.76,23.66,-5.85,0.75,27.45,29.47,47.15,
01/01/2000,00:01:05.05,-222.66,173.34,1419.43,-7.56,-37.93,22.62,-5.10,1.05,26.40,29.56,47.15,
01/01/2000,00:01:05.05,-260.74,60.55,1788.09,23.05,-24.57,12.20,-7.20,0.90,27.30,29.80,47.15,
01/01/2000,00:01:05.05,-148.44,-81.05,1971.19,18.17,-4.82,13.23,-7.80,-0.30,25.35,29.56,47.15,
01/01/2000,00:01:05.05,-107.91,-84.47,1777.83,-5.18,10.67,19.33,-6.60,0.75,25.65,29.66,47.16,
01/01/2000,00:01:05.05,-57.13,-21.97,1318.85,-14.82,7.44,10.85,-6.30,1.05,26.40,29.90,47.16,
01/01/2000,00:01:05.05,-28.32,16.11,1088.87,-9.51,11.89,9.27,-6.00,0.45,27.30,29.56,47.16,
01/01/2000,00:01:05.05,0.49,18.07,959.47,-0.91,18.72,8.35,-6.30,0.75,26.40,29.80,47.17,
01/01/2000,00:01:05.05,-45.41,0.49,832.52,1.10,19.27,7.38,-6.45,0.90,27.75,29.56,47.17,
01/01/2000,00:01:05.05,-87.89,11.23,703.61,-6.22,13.60,6.28,-5.40,0.90,26.55,29.56,47.17,
01/01/2000,00:01:05.05,-82.03,4.39,546.39,-13.29,5.91,6.10,-7.35,-0.30,27.15,29.47,47.17,
01/01/2000,00:01:05.05,-20.02,4.88,359.38,-12.87,10.49,10.73,-4.80,1.05,26.10,29.56,47.18,
01/01/2000,00:01:05.05,-26.37,20.51,278.81,-5.98,11.71,23.05,-4.80,-0.30,26.10,29.47,47.18,
01/01/2000,00:01:05.05,-60.06,3.42,251.95,4.63,7.44,32.32,-4.95,0.90,28.05,29.66,47.18,
01/01/2000,00:01:05.05,-76.17,20.51,291.50,6.22,-2.01,36.34,-5.55,-1.05,27.15,29.61,47.18,
01/01/2000,00:01:05.05,-95.70,32.71,310.55,8.84,-0.98,38.54,-4.20,-1.65,26.55,29.66,47.19,
01/01/2000,00:01:05.05,-150.88,66.89,351.07,15.24,-8.11,34.63,-5.10,-2.25,27.90,29.61,47.19,
01/01/2000,00:01:05.05,-209.96,57.13,576.66,29.82,-18.66,17.99,-5.55,-1.05,28.20,29.37,47.19,
01/01/2000,00:01:05.05,-192.87,6.84,943.85,43.96,-26.59,-2.13,-7.05,-1.50,26.40,29.66,47.19,
01/01/2000,00:01:05.05,-92.77,-66.41,1356.93,42.32,-26.46,-5.00,-5.10,-0.75,26.40,29.42,47.19,
01/01/2000,00:01:05.05,-62.01,-78.61,1715.33,28.60,-6.16,9.57,-5.70,-0.45,27.30,29.56,47.20,
01/01/2000,00:01:05.05,-258.30,-17.58,1708.50,4.94,-5.61,9.09,-5.85,0.75,25.35,29.56,47.20,
01/01/2000,00:01:05.05,-101.56,69.34,1355.47,-2.44,-19.45,-36.46,-6.75,0.15,27.00,29.80,47.13,
01/01/2000,00:01:05.05,-194.34,28.81,1640.62,17.56,-13.90,-47.56,-8.10,1.50,26.85,29.80,47.13,
01/01/2000,00:01:05.05,-49.32,-89.36,2010.74,14.57,-18.60,-59.45,-8.55,1.80,27.15,29.80,47.13,
01/01/2000,00:01:05.05,160.64,-118.16,1987.30,-21.04,-11.16,-44.63,-7.95,0.90,25.50,29.75,47.14,
01/01/2000,00:01:05.05,255.37,0.00,1576.17,-44.76,-1.71,-6.34,-8.70,1.65,27.75,29.47,47.14,
01/01/2000,00:01:05.05,178.71,187.50,1013.18,-41.10,19.27,22.74,-8.55,1.05,26.10,29.66,47.14,
01/01/2000,00:01:05.05,12.21,263.18,687.99,-17.87,27.62,44.33,-8.10,-0.75,26.85,29.47,47.14,
01/01/2000,00:01:05.05,-178.71,269.04,621.58,-9.57,27.87,41.89,-7.95,1.35,25.80,29.56,47.15,
01/01/2000,00:01:05.05,-273.44,225.10,525.39,-20.73,2.68,20.00,-8.10,0.00,25.65,29.66,47.15,
01/01/2000,00:01:05.05,-213.38,148.44,409.67,-18.78,-10.18,4.57,-8.10,0.75,25.65,29.61,47.15,
01/01/2000,00:01:05.05,-220.70,84.47,369.63,-7.01,-5.43,-4.94,-6.75,0.15,25.80,29.75,47.15,
01/01/2000,00:01:05.05,-178.22,35.64,398.93,4.15,1.10,-6.89,-7.20,-1.65,26.55,29.66,47.16,
01/01/2000,00:01:05.05,-163.57,-38.57,576.66,4.27,0.55,-10.18,-7.05,-0.75,26.40,29.66,47.16,
01/01/2000,00:01:05.05,-142.58,-86.43,648.44,-8.23,0.49,-9.33,-7.80,0.00,25.65,29.61,47.16,
01/01/2000,00:01:05.05,-89.84,-83.98,604.00,-12.68,-2.20,-5.24,-6.75,-0.45,26.25,29.66,47.17,
01/01/2000,00:01:05.05,-55.66,-67.38,616.21,-8.54,-2.87,1.77,-7.05,-0.75,26.85,29.66,47.17,
01/01/2000,00:01:05.05,-143.07,-1.95,704.10,0.30,-5.49,11.34,-7.05,-1.05,26.85,29.90,47.17,
01/01/2000,00:01:05.05,-252.44,-18.55,852.54,4.88,-4.88,12.38,-7.50,-1.35,26.55,29.95,47.17,
01/01/2000,00:01:05.05,-286.13,-38.09,1020.02,1.89,-2.50,4.63,-8.25,-1.65,25.80,29.80,47.18,
01/01/2000,00:01:05.05,-228.52,-48.83,1110.84,-9.02,-5.37,-7.01,-7.80,-1.50,25.65,29.90,47.18,
01/01/2000,00:01:05.05,-164.55,-77.64,1229.49,-13.84,-8.17,-3.35,-7.35,-1.05,25.65,29.56,47.18,
01/01/2000,00:01:05.05,-134.28,-74.71,1298.83,-20.30,-5.30,9.51,-7.20,-1.35,26.25,29.56,47.18,
01/01/2000,00:01:05.05,-168.46,-25.39,1374.51,-23.29,-7.26,15.61,-7.95,-2.40,25.50,29.56,47.19,
01/01/2000,00:01:05.05,-118.16,-25.39,1443.85,-31.89,1.77,23.05,-6.60,-1.05,25.35,29.75,47.19,
01/01/2000,00:01:05.05,-130.37,-14.16,1600.10,22.74,-23.84,4.76,-9.00,-3.60,26.55,29.61,47.10,
01/01/2000,00:01:05.05,139.16,-160.64,1735.35,30.06,7.99,15.49,-8.55,-4.20,26.40,29.61,47.10,
01/01/2000,00:01:05.05,61.52,-138.18,1571.29,20.37,13.48,34.33,-10.20,-2.85,25.50,29.80,47.10,
01/01/2000,00:01:05.05,40.53,-83.50,1301.76,4.88,5.00,27.68,-7.95,-2.85,25.80,29.37,47.10,
01/01/2000,00:01:05.05,52.25,-9.28,1084.47,11.16,3.35,23.90,-7.50,-3.30,27.00,29.56,47.11,
01/01/2000,00:01:05.05,-18.07,34.18,963.38,19.27,5.37,23.66,-9.00,-2.40,26.25,29.56,47.11,
01/01/2000,00:01:05.05,-69.82,42.97,881.35,22.20,5.43,13.23,-7.50,-2.85,25.80,29.66,47.11,
01/01/2000,00:01:05.05,-72.75,56.64,755.86,15.91,5.06,11.34,-8.10,-2.70,23.55,29.66,47.11,
01/01/2000,00:01:05.05,-23.93,69.82,601.56,12.26,-3.11,9.27,-7.50,-1.65,25.50,29.75,47.12,
01/01/2000,00:01:05.05,-46.88,24.41,571.29,13.78,-9.82,11.65,-7.80,-1.80,25.35,29.56,47.12,
01/01/2000,00:01:05.05,-100.59,9.77,564.45,12.62,-5.91,17.68,-7.50,-2.85,25.50,29.56,47.12,
01/01/2000,00:01:05.05,-125.98,11.72,527.83,12.20,-1.89,18.78,-8.70,-2.10,25.20,29.75,47.12,
01/01/2000,00:01:05.05,-120.12,-12.70,563.96,14.21,1.40,25.98,-6.75,-2.40,24.75,29.56,47.13,
01/01/2000,00:01:05.05,-131.35,-16.11,597.66,11.28,4.88,24.88,-8.10,-2.70,24.60,29.61,47.13,
01/01/2000,00:01:05.05,-176.76,-5.37,657.23,11.28,1.52,27.50,-7.50,-2.85,25.50,29.61,47.13,
01/01/2000,00:01:05.05,-226.07,6.84,774.90,9.63,-3.11,17.26,-8.10,-1.80,26.10,29.80,47.13,
01/01/2000,00:01:05.05,-181.64,-23.44,894.04,8.54,-3.90,-1.10,-8.70,-3.60,24.45,29.56,47.14,
01/01/2000,00:01:05.05,-74.71,-38.09,1078.12,10.12,-12.13,-8.84,-7.05,-1.80,26.85,29.90,47.14,
01/01/2000,00:01:05.05,-59.57,-35.64,1353.52,13.90,-9.45,-6.28,-7.80,-1.05,25.65,29.80,47.14,
01/01/2000,00:01:05.05,-78.12,-10.74,1436.52,9.70,-0.12,-11.34,-7.80,-2.25,26.10,29.47,47.14,
01/01/2000,00:01:05.05,-60.55,18.55,1398.44,-1.83,2.74,-23.23,-7.95,-2.10,25.80,29.80,47.15,
01/01/2000,00:01:05.05,-9.28,31.25,1289.55,-11.10,5.00,-29.27,-9.30,-0.75,24.60,29.56,47.15,
01/01/2000,00:01:05.05,-40.04,88.38,1213.38,-11.71,0.55,-32.74,-8.85,-1.05,25.65,29.80,47.15,
01/01/2000,00:01:05.05,-154.30,102.05,1188.96,-2.68,-7.56,-46.83,-9.30,-1.05,26.10,29.56,47.15,
01/01/2000,00:01:05.05,45.90,11.72,1426.27,23.48,-18.11,-73.60,-8.85,-0.75,26.10,29.61,47.13,
01/01/2000,00:01:05.05,233.89,-37.11,1571.78,27.44,0.91,-49.63,-8.85,0.30,24.90,29.37,47.13,
01/01/2000,00:01:05.05,227.54,29.30,1536.13,10.67,23.48,-12.50,-9.30,0.75,24.15,29.56,47.13,
01/01/2000,00:01:05.05,109.86,157.23,1270.02,-12.26,7.07,2.07,-8.85,1.05,24.60,29.80,47.14,
01/01/2000,00:01:05.05,29.30,221.19,971.19,-22.44,0.24,7.20,-8.70,1.35,26.55,29.75,47.14,
01/01/2000,00:01:05.05,-65.92,232.42,784.67,-9.57,6.40,15.73,-9.00,1.65,24.75,29.80,47.14,
01/01/2000,00:01:05.05,-225.59,193.85,737.79,-1.16,9.45,6.65,-8.25,0.45,24.75,29.56,47.14,
01/01/2000,00:01:05.05,-231.45,106.45,721.68,-2.13,4.63,-10.79,-8.55,1.50,25.65,29.75,47.15,
01/01/2000,00:01:05.05,-213.87,26.86,638.67,-11.10,5.73,-15.61,-7.35,0.30,26.10,29.47,47.15,
01/01/2000,00:01:05.05,-145.02,-28.32,587.89,-12.87,5.91,-21.52,-7.80,-0.30,26.10,29.75,47.15,
01/01/2000,00:01:05.05,-123.05,-67.38,515.62,-10.98,9.82,-18.72,-7.80,0.75,25.65,29.56,47.15,
01/01/2000,00:01:05.05,-81.05,-90.33,479.98,-12.93,11.46,-11.16,-7.35,-1.05,25.65,29.66,47.16,
01/01/2000,00:01:05.05,-108.40,-69.34,453.61,-8.96,11.52,-3.90,-6.60,0.75,25.65,29.90,47.16,
01/01/2000,00:01:05.05,-153.81,-59.57,521.48,-5.49,10.30,0.00,-7.80,0.75,24.90,29.66,47.16,
01/01/2000,00:01:05.05,-181.15,-10.74,674.80,-4.94,9.45,0.00,-7.80,-1.05,26.40,29.75,47.16,
01/01/2000,00:01:05.05,-225.59,0.49,781.25,-8.41,2.56,-0.06,-8.10,0.00,26.10,29.80,47.17,
01/01/2000,00:01:05.05,-253.42,14.65,936.04,-8.54,-7.13,-3.84,-6.75,0.45,26.25,29.47,47.17,
01/01/2000,00:01:05.05,-242.19,12.21,1084.96,-7.13,-7.87,-7.87,-7.80,-1.05,26.40,29.56,47.17,
01/01/2000,00:01:05.05,-165.53,-35.16,1263.67,-10.43,-4.15,-6.65,-6.75,-0.90,25.80,29.80,47.17,
01/01/2000,00:01:05.05,-141.11,-58.11,1414.06,-17.93,-2.32,4.76,-7.20,-0.90,25.80,29.75,47.18,
01/01/2000,00:01:05.05,-219.24,-11.23,1518.07,-29.70,-7.26,9.15,-7.80,-0.30,26.10,29.75,47.18,
01/01/2000,00:01:05.05,-183.11,6.84,1497.07,-39.57,-3.60,14.39,-7.80,-0.75,27.45,29.80,47.18,
01/01/2000,00:01:05.05,-92.77,102.54,1302.73,-32.13,-3.54,26.16,-7.50,-2.10,25.80,29.66,47.18,
01/01/2000,00:01:05.05,-162.11,128.91,1263.18,-2.74,-4.82,22.26,-8.10,-2.70,26.10,29.80,47.19,
01/01/2000,00:01:05.05,-164.55,100.59,1558.11,33.48,-13.90,12.62,-7.50,-2.10,25.20,29.56,47.19,
01/01/2000,00:01:05.05,42.48,-63.48,1233.89,-12.74,5.55,17.01,-7.50,-3.30,26.55,29.61,47.10,
01/01/2000,00:01:05.05,77.15,7.81,951.66,2.87,14.02,23.05,-7.20,-1.35,26.25,29.80,47.10,
01/01/2000,00:01:05.05,-15.14,21.00,857.91,20.61,24.09,25.30,-7.05,-1.05,27.90,29.80,47.10,
01/01/2000,00:01:05.05,-96.68,12.21,854.49,25.00,24.94,17.26,-7.50,-2.85,26.25,29.66,47.11,
01/01/2000,00:01:05.05,-99.12,2.93,777.34,8.29,15.00,6.28,-6.00,-0.90,25.50,29.80,47.11,
01/01/2000,00:01:05.05,-70.31,22.95,600.10,-5.61,-4.88,3.17,-5.85,-2.25,26.10,29.75,47.11,
01/01/2000,00:01:05.05,-67.38,32.23,424.32,-4.45,0.98,6.65,-5.55,-3.00,27.90,29.75,47.11,
01/01/2000,00:01:05.05,-82.52,20.02,412.60,7.93,6.83,18.78,-5.85,-1.80,25.65,29.75,47.12,
01/01/2000,00:01:05.05,-104.98,-7.81,472.66,5.12,15.12,18.35,-6.30,-1.80,26.85,29.61,47.12,
01/01/2000,00:01:05.05,-120.61,-15.62,490.72,-4.15,9.09,23.29,-6.75,-2.10,26.55,29.80,47.12,
01/01/2000,00:01:05.05,-130.86,-8.79,474.61,-4.45,0.12,21.16,-5.85,-3.45,27.45,29.75,47.12,
01/01/2000,00:01:05.05,-175.78,6.84,518.07,7.01,-8.41,17.13,-4.80,-2.70,25.65,29.56,47.13,
01/01/2000,00:01:05.05,-222.17,-17.09,661.13,18.48,-5.24,5.49,-5.85,-1.50,26.10,29.61,47.13,
01/01/2000,00:01:05.05,-181.64,-40.04,866.70,23.66,-10.91,-6.89,-5.10,-0.30,28.20,29.47,47.13,
01/01/2000,00:01:05.05,-115.23,-72.27,1125.00,16.40,-21.22,-19.76,-7.50,-1.65,27.30,29.61,47.13,
01/01/2000,00:01:05.05,-150.39,-69.82,1419.92,4.21,-46.04,-26.59,-6.75,-0.45,26.25,29.42,47.14,
01/01/2000,00:01:05.05,-174.80,-5.86,1504.39,-15.79,-46.34,-37.68,-7.20,-0.45,26.55,29.56,47.14,
01/01/2000,00:01:05.05,-97.66,22.95,1338.87,-14.57,-25.24,-40.79,-7.95,-0.45,25.50,29.80,47.14,
01/01/2000,00:01:05.05,30.76,-1.95,1187.50,2.50,-4.51,-31.22,-7.50,-0.45,25.20,29.47,47.14,
01/01/2000,00:01:05.05,-32.23,45.41,1214.36,20.98,9.09,-15.30,-8.55,0.75,25.65,29.61,47.14,
01/01/2000,00:01:05.05,-206.54,86.91,1394.53,26.34,-4.63,-30.12,-7.80,0.30,24.90,29.61,47.15,
01/01/2000,00:01:05.05,-127.44,-19.53,1746.58,16.52,-21.40,-63.35,-8.10,1.50,26.85,29.80,47.15,
01/01/2000,00:01:05.05,186.04,-96.19,1766.60,-4.57,-9.02,-54.57,-8.10,1.05,26.40,29.47,47.15,
01/01/2000,00:01:05.05,340.82,-23.93,1500.49,-13.29,6.40,-15.30,-8.10,1.80,25.65,29.95,47.15,
01/01/2000,00:01:05.05,-7.81,186.04,1126.46,-10.67,31.65,26.71,-8.10,1.05,26.85,29.66,47.13,
01/01/2000,00:01:05.05,-105.47,230.96,915.53,-14.21,30.37,22.74,-8.70,1.65,25.80,29.66,47.13,
01/01/2000,00:01:05.05,-191.89,203.61,749.02,-14.39,27.13,12.80,-8.10,-0.30,26.10,29.66,47.13,
01/01/2000,00:01:05.05,-202.15,181.15,615.72,-10.43,17.38,2.38,-7.05,0.00,26.10,29.42,47.14,
01/01/2000,00:01:05.05,-229.98,111.33,573.73,-2.74,18.90,-7.87,-8.25,-0.45,26.25,29.66,47.14,
01/01/2000,00:01:05.05,-237.79,36.13,591.80,-5.98,12.07,-18.05,-7.35,1.50,24.60,29.42,47.14,
01/01/2000,00:01:05.05,-181.15,-28.32,553.71,-16.16,5.55,-24.88,-5.10,0.00,27.45,29.56,47.14,
01/01/2000,00:01:05.05,-132.32,-57.62,530.27,-17.74,1.65,-22.62,-5.55,-0.75,26.10,29.90,47.15,
01/01/2000,00:01:05.05,-126.46,-66.89,494.14,-13.54,3.96,-20.24,-5.85,-0.30,27.45,29.80,47.15,
01/01/2000,00:01:05.05,-145.02,-65.43,541.50,-11.40,5.73,-11.28,-6.45,1.65,27.30,29.80,47.15,
01/01/2000,00:01:05.05,-182.13,-42.48,609.38,-6.34,5.61,-7.93,-5.85,1.05,26.10,29.75,47.15,
01/01/2000,00:01:05.05,-224.61,-8.30,692.87,-2.44,-1.65,-1.16,-6.30,0.30,26.10,29.80,47.16,
01/01/2000,00:01:05.05,-265.14,2.93,847.66,2.13,0.79,3.54,-6.30,-1.05,26.10,29.61,47.16,
01/01/2000,00:01:05.05,-322.27,-13.67,1009.28,1.22,3.41,3.23,-6.45,-0.15,26.25,29.61,47.16,
01/01/2000,00:01:05.05,-255.86,-10.74,1137.21,-0.43,1.10,2.44,-7.95,0.15,27.00,29.47,47.16,
01/01/2000,00:01:05.05,-173.34,-39.06,1273.93,-1.10,-4.15,4.09,-6.60,0.30,26.10,29.75,47.16,
01/01/2000,00:01:05.05,-93.26,-39.55,1386.23,-9.82,-6.52,16.77,-5.10,-0.30,26.40,29.80,47.17,
01/01/2000,00:01:05.05,-188.96,-43.95,1555.18,-22.20,-7.26,26.22,-6.30,-1.05,26.10,29.80,47.17,
01/01/2000,00:01:05.05,-155.27,29.79,1343.75,-44.21,-19.63,28.41,-6.45,-2.40,26.55,29.80,47.17,
01/01/2000,00:01:05.05,-81.05,188.96,1237.30,-29.39,-28.54,41.59,-7.35,-2.25,27.15,29.61,47.17,
01/01/2000,00:01:05.05,-398.93,236.33,1505.37,3.84,-32.26,35.85,-6.60,-2.25,25.65,29.66,47.18,
01/01/2000,00:01:05.05,-150.88,13.18,1832.52,10.61,-29.39,-5.55,-7.35,-4.20,27.15,29.37,47.18,
01/01/2000,00:01:05.05,185.55,-105.96,1786.13,6.65,-16.71,7.80,-7.95,-2.40,26.25,29.61,47.18,
01/01/2000,00:01:05.05,51.76,-84.96,1559.08,13.84,16.10,37.20,-8.70,-2.85,26.55,29.66,47.18,
01/01/2000,00:01:05.05,-0.98,13.67,1342.77,16.46,26.34,29.76,-7.80,-2.25,25.35,29.61,47.19,
01/01/2000,00:01:05.05,15.14,49.32,754.88,5.73,22.20,5.91,-6.60,-1.80,27.90,29.56,47.10,
01/01/2000,00:01:05.05,-27.83,56.15,553.22,4.88,17.13,5.55,-6.75,-4.05,27.30,29.80,47.11,
01/01/2000,00:01:05.05,-69.82,51.76,422.36,7.07,11.59,1.10,-6.75,-1.65,26.55,29.90,47.11,
01/01/2000,00:01:05.05,-93.75,15.62,406.74,7.32,8.48,3.60,-4.35,-2.25,24.60,29.75,47.11,
01/01/2000,00:01:05.05,-101.07,18.07,371.09,8.54,2.50,8.23,-5.10,-1.50,26.40,29.56,47.11,
01/01/2000,00:01:05.05,-117.19,1.95,387.70,8.84,3.11,11.46,-5.85,-2.25,27.90,29.75,47.11,
01/01/2000,00:01:05.05,-177.73,-12.70,427.73,10.98,7.87,20.91,-4.65,-2.40,26.55,29.80,47.12,
01/01/2000,00:01:05.05,-264.16,-4.88,510.25,12.20,8.72,15.00,-5.70,-2.40,27.00,29.75,47.12,
01/01/2000,00:01:05.05,-271.00,-11.72,626.95,13.05,8.23,10.18,-5.40,-3.30,27.30,29.66,47.12,
01/01/2000,00:01:05.05,-271.97,-2.93,760.74,13.90,7.13,3.72,-4.80,-3.00,27.90,29.56,47.12,
01/01/2000,00:01:05.05,-245.61,-41.02,903.32,20.24,6.71,-5.61,-4.20,-0.90,27.00,29.61,47.13,
01/01/2000,00:01:05.05,-209.96,-78.12,1114.26,20.91,5.55,-13.05,-6.75,-3.60,28.05,29.56,47.13,
01/01/2000,00:01:05.05,-190.92,-35.16,1347.17,15.67,3.41,-15.85,-6.00,0.15,26.25,29.80,47.13,
01/01/2000,00:01:05.05,-236.82,25.88,1391.60,0.49,-3.84,-25.43,-5.40,-1.35,25.80,29.56,47.13,
01/01/2000,00:01:05.05,-206.05,17.58,1320.31,-2.50,-11.59,-37.87,-4.35,-0.30,28.20,29.56,47.14,
01/01/2000,00:01:05.05,-132.32,-10.74,1353.03,4.63,-6.52,-36.22,-4.65,-1.35,26.55,29.56,47.14,
01/01/2000,00:01:05.05,-159.18,58.11,1443.85,2.68,-0.61,-31.95,-6.45,-0.90,26.25,29.80,47.14,
01/01/2000,00:01:05.05,-200.20,109.38,1521.48,6.71,-11.52,-50.73,-4.65,0.90,25.80,29.66,47.14,
01/01/2000,00:01:05.05,6.35,27.34,1693.85,6.59,-24.21,-67.38,-4.95,1.65,27.30,29.47,47.14,
01/01/2000,00:01:05.05,238.28,-45.41,1681.15,-1.65,-11.34,-49.57,-6.00,0.90,27.00,29.61,47.15,
01/01/2000,00:01:05.05,297.85,-12.70,1437.01,-10.61,1.65,-6.10,-6.75,3.30,28.05,29.56,47.15,
01/01/2000,00:01:05.05,85.45,66.41,1208.01,-19.51,-0.55,18.66,-5.70,0.90,27.30,29.80,47.15,
01/01/2000,00:01:05.05,-23.93,133.30,998.54,-22.87,-1.46,27.20,-6.30,0.30,26.85,29.80,47.15,
01/01/2000,00:01:05.05,-177.73,190.43,789.55,-18.23,9.27,35.00,-5.70,0.15,26.55,29.66,47.16,
01/01/2000,00:01:05.05,-326.17,179.20,522.46,-8.54,7.80,15.49,-6.60,-0.75,26.10,29.66,47.13,
01/01/2000,00:01:05.05,-311.52,114.75,430.18,-2.80,4.15,-1.52,-4.35,0.30,27.15,29.61,47.13,
01/01/2000,00:01:05.05,-251.46,30.76,406.74,1.40,2.07,-11.59,-5.85,-0.75,26.85,29.47,47.13,
01/01/2000,00:01:05.05,-168.46,-14.65,425.78,1.04,-2.80,-19.21,-6.75,-0.90,28.05,29.56,47.14,
01/01/2000,00:01:05.05,-145.02,-55.18,469.73,-1.04,-8.90,-14.88,-5.85,0.30,27.15,29.37,47.14,
01/01/2000,00:01:05.05,-126.46,-76.66,538.09,-4.09,-9.70,-9.82,-4.80,-0.30,27.45,29.80,47.14,
01/01/2000,00:01:05.05,-191.41,-68.36,629.39,-5.67,-5.98,-6.83,-5.40,-0.15,26.25,29.47,47.14,
01/01/2000,00:01:05.05,-203.61,-68.36,729.49,-4.76,-8.23,-6.10,-4.95,-0.15,26.55,29.80,47.15,
01/01/2000,00:01:05.05,-216.80,-61.52,875.49,-5.91,-4.51,-0.43,-5.70,0.15,27.30,29.61,47.15,
01/01/2000,00:01:05.05,-285.64,-66.41,1003.91,-10.91,-2.26,2.44,-6.45,-1.35,27.30,29.66,47.15,
01/01/2000,00:01:05.05,-286.13,-79.59,1134.77,-15.43,-5.98,2.01,-5.70,-1.35,26.25,29.61,47.15,
01/01/2000,00:01:05.05,-254.39,-104.98,1261.23,-24.76,-1.77,4.39,-5.85,-1.50,26.40,29.61,47.16,
01/01/2000,00:01:05.05,-169.43,-79.59,1348.14,-29.02,3.66,13.41,-5.55,-1.50,27.45,29.47,47.16,
01/01/2000,00:01:05.05,-182.62,-12.70,1494.63,-37.74,15.12,23.11,-7.05,-0.75,24.90,29.47,47.16,
01/01/2000,00:01:05.05,-216.31,35.16,1432.13,-44.82,13.66,27.07,-6.75,-1.65,26.25,29.61,47.16,
01/01/2000,00:01:05.05,-192.87,154.79,1313.96,-40.06,10.06,36.28,-5.40,-1.65,26.25,29.56,47.16,
01/01/2000,00:01:05.05,-389.16,263.67,1298.34,-19.63,-3.41,35.18,-5.85,-5.40,26.85,29.66,47.17,
01/01/2000,00:01:05.05,-552.73,99.61,1579.10,3.84,-24.09,-25.55,-4.65,-3.60,25.50,29.80,47.17,
01/01/2000,00:01:05.05,54.20,-96.68,1552.25,6.40,-15.37,-54.63,-6.45,-4.80,27.30,29.61,47.17,
01/01/2000,00:01:05.05,219.24,-224.12,1465.82,16.77,5.43,-20.24,-6.00,-4.80,25.80,29.61,47.17,
01/01/2000,00:01:05.05,66.89,-217.29,1362.79,15.49,8.11,-8.96,-6.75,-3.30,25.20,29.66,47.18,
01/01/2000,00:01:05.05,83.98,-180.66,1229.00,8.29,2.80,-10.24,-7.05,-4.20,27.15,29.75,47.18,
01/01/2000,00:01:05.05,47.85,-137.70,1072.27,8.41,1.71,-5.12,-6.60,-3.00,25.35,29.56,47.18,
01/01/2000,00:01:05.05,31.74,-96.19,912.11,-1.10,-1.77,-3.05,-7.95,-2.10,25.80,29.66,47.18,
01/01/2000,00:01:05.05,37.11,-59.57,724.12,-5.37,-6.65,2.38,-6.00,-2.85,25.80,29.80,47.18,
01/01/2000,00:01:05.05,-63.48,-23.44,528.81,2.32,-12.26,27.13,-7.80,-3.45,25.35,29.56,47.11,
01/01/2000,00:01:05.05,-76.66,-21.48,509.28,0.91,-9.45,36.83,-5.85,-3.00,25.65,29.56,47.11,
01/01/2000,00:01:05.05,-122.07,-9.77,500.98,-0.49,-5.12,46.10,-8.25,-3.30,25.50,29.75,47.11,
01/01/2000,00:01:05.05,-177.25,14.16,533.69,1.16,-2.07,52.26,-6.60,-3.75,26.10,29.80,47.11,
01/01/2000,00:01:05.05,-234.38,57.13,571.78,6.59,0.49,50.91,-7.80,-4.20,26.10,29.61,47.11,
01/01/2000,00:01:05.05,-289.55,68.36,738.28,15.06,-6.71,35.73,-7.20,-4.05,27.00,29.61,47.12,
01/01/2000,00:01:05.05,-291.50,-11.72,990.72,15.49,-15.55,9.82,-6.60,-3.00,24.60,29.47,47.12,
01/01/2000,00:01:05.05,-153.32,-81.54,1188.48,16.52,-15.24,-5.06,-7.35,-2.70,24.15,29.42,47.12,
01/01/2000,00:01:05.05,-43.46,-45.41,1364.75,18.90,-4.21,2.68,-7.80,-4.65,26.10,29.61,47.12,
01/01/2000,00:01:05.05,-145.02,17.58,1436.52,15.55,8.48,1.59,-6.75,-3.30,26.25,29.66,47.13,
01/01/2000,00:01:05.05,-155.76,27.34,1366.21,-2.99,-0.12,-16.28,-6.00,-4.35,25.80,29.80,47.13,
01/01/2000,00:01:05.05,-44.43,-8.79,1248.05,-6.83,-12.99,-39.70,-7.35,-2.70,25.65,29.90,47.13,
01/01/2000,00:01:05.05,-16.60,1.95,1217.77,-0.43,-19.57,-42.26,-6.60,-4.20,26.10,29.75,47.13,
01/01/2000,00:01:05.05,-135.74,8.30,1320.80,15.37,-27.62,-57.13,-7.20,-1.65,26.55,29.80,47.13,
01/01/2000,00:01:05.05,-69.34,-100.10,1686.04,24.70,-32.26,-86.04,-7.35,-2.70,26.10,29.56,47.14,
01/01/2000,00:01:05.05,226.56,-183.59,1808.11,11.77,-14.27,-74.82,-7.80,-1.50,25.35,29.80,47.14,
01/01/2000,00:01:05.05,349.61,-103.52,1636.23,-12.74,12.32,-27.20,-9.75,-0.15,24.75,29.42,47.14,
01/01/2000,00:01:05.05,78.61,67.87,1213.87,-24.51,15.00,13.35,-6.60,-0.30,26.10,29.80,47.14,
01/01/2000,00:01:05.05,-91.31,185.06,929.69,-26.59,19.27,14.51,-9.30,-1.05,25.35,29.75,47.15,
01/01/2000,00:01:05.05,-153.32,181.15,724.12,-22.74,27.13,12.80,-6.60,-0.75,25.65,29.56,47.15,
01/01/2000,00:01:05.05,-209.96,180.18,582.52,-18.23,22.93,3.05,-7.20,-2.85,25.50,29.66,47.15,
01/01/2000,00:01:05.05,-284.67,145.51,467.29,-3.78,5.98,-15.30,-7.95,-1.65,25.50,29.61,47.15,
01/01/2000,00:01:05.05,-246.09,41.02,518.07,2.20,-0.61,-27.56,-8.25,-0.90,27.30,29.61,47.15,
01/01/2000,00:01:05.05,-210.94,-31.74,571.29,0.61,5.85,-35.61,-7.35,-1.05,25.65,29.37,47.16,
01/01/2000,00:01:05.05,-78.12,-136.23,600.10,-3.90,-2.20,-32.32,-7.95,-2.10,26.55,29.80,47.13,
01/01/2000,00:01:05.05,-45.41,-154.30,640.14,-4.82,4.09,-17.26,-8.55,-0.75,26.85,29.61,47.13,
01/01/2000,00:01:05.05,-96.68,-127.44,669.43,-4.33,10.55,-1.10,-8.10,-0.30,26.40,29.66,47.14,
01/01/2000,00:01:05.05,-158.69,-116.21,755.86,-8.72,6.34,3.41,-8.85,-2.70,26.10,29.37,47.14,
01/01/2000,00:01:05.05,-210.45,-86.91,797.85,-12.93,-0.49,9.39,-7.50,-1.65,26.55,29.75,47.14,
01/01/2000,00:01:05.05,-250.98,-88.87,848.63,-14.39,-2.44,6.46,-7.50,-1.65,25.50,29.80,47.14,
01/01/2000,00:01:05.05,-273.44,-87.40,929.20,-9.02,-0.55,4.33,-6.30,-1.50,25.35,29.61,47.14,
01/01/2000,00:01:05.05,-156.74,-103.52,1091.80,-2.20,0.55,6.22,-7.05,-2.25,24.90,29.80,47.15,
01/01/2000,00:01:05.05,-115.23,-115.72,1317.38,-2.13,2.93,27.13,-6.75,-2.40,27.30,29.61,47.15,
01/01/2000,00:01:05.05,-201.66,-78.61,1447.75,-10.55,10.91,28.29,-8.70,-2.85,27.00,29.80,47.15,
01/01/2000,00:01:05.05,-172.36,-50.78,1459.96,-24.02,13.35,26.28,-7.50,-2.40,25.80,29.75,47.15,
01/01/2000,00:01:05.05,22.46,37.60,1247.56,-18.29,2.44,31.40,-5.85,-3.00,25.65,29.61,47.16,
01/01/2000,00:01:05.05,40.53,90.33,1424.32,22.07,-5.30,43.23,-7.35,-3.00,26.10,29.66,47.16,
01/01/2000,00:01:05.05,-121.58,41.02,1922.36,45.18,4.51,39.02,-5.70,-3.60,25.80,29.66,47.16,
01/01/2000,00:01:05.05,-76.17,-9.28,1953.61,23.66,14.02,28.72,-7.35,-3.75,26.40,29.80,47.16,
01/01/2000,00:01:05.05,-98.63,17.58,1627.44,0.00,4.88,17.80,-6.60,-4.65,26.40,29.61,47.16,
01/01/2000,00:01:05.05,-53.22,34.18,1231.45,-7.80,-5.30,4.57,-7.20,-3.60,25.80,29.80,47.17,
01/01/2000,00:01:05.05,53.71,27.83,990.72,12.99,0.43,1.46,-6.45,-2.85,26.25,29.56,47.17,
01/01/2000,00:01:05.05,27.34,22.46,945.80,37.13,16.22,4.63,-6.75,-2.85,26.25,29.80,47.17,
01/01/2000,00:01:05.05,-70.31,0.49,975.59,34.76,10.98,4.70,-6.45,-1.65,26.25,29.66,47.17,
01/01/2000,00:01:05.05,-69.82,10.25,845.21,16.59,-1.28,-6.95,-6.00,-1.65,25.80,29.66,47.18,
01/01/2000,00:01:05.05,-67.38,-3.91,615.23,11.65,-7.50,-8.78,-5.85,-2.25,27.45,29.61,47.18,
01/01/2000,00:01:05.05,-95.70,9.77,505.37,21.52,-2.50,-4.45,-6.00,-1.65,25.80,29.80,47.18,
01/01/2000,00:01:05.05,-138.67,-1.95,501.95,25.00,6.71,-3.48,-4.35,0.00,26.85,29.80,47.18,
01/01/2000,00:01:05.05,-119.63,-25.39,539.06,19.39,4.82,-5.98,-6.60,-1.05,27.15,29.56,47.18,
01/01/2000,00:01:05.05,-172.36,-49.80,593.26,23.35,10.73,8.17,-6.75,-1.35,28.05,29.66,47.11,
01/01/2000,00:01:05.05,-250.49,-68.36,746.09,17.56,5.67,-4.21,-7.35,0.00,27.15,29.28,47.11,
01/01/2000,00:01:05.05,-194.82,-100.59,871.09,12.44,-0.85,-19.76,-5.70,-0.45,28.05,29.80,47.11,
01/01/2000,00:01:05.05,-140.62,-113.77,989.26,10.06,-4.57,-22.13,-6.60,0.75,26.85,29.56,47.11,
01/01/2000,00:01:05.05,-106.45,-95.21,1098.63,14.88,-2.07,-13.90,-6.30,0.00,25.65,29.66,47.11,
01/01/2000,00:01:05.05,-192.38,-78.12,1312.50,17.93,11.10,-16.10,-7.80,1.80,27.15,29.56,47.12,
01/01/2000,00:01:05.05,-246.09,-33.20,1453.12,8.54,14.63,-24.15,-5.40,0.45,26.25,29.66,47.12,
01/01/2000,00:01:05.05,-165.53,-3.91,1452.15,-4.15,1.34,-31.52,-3.45,1.35,25.50,29.66,47.12,
01/01/2000,00:01:05.05,-223.14,40.53,1311.52,-8.66,14.76,-23.35,-6.00,1.35,26.55,29.66,47.12,
01/01/2000,00:01:05.05,-323.24,100.59,1257.32,-5.98,7.93,-30.06,-5.85,0.75,26.40,29.80,47.13,
01/01/2000,00:01:05.05,-415.04,38.57,1351.56,-6.89,-4.82,-63.54,-6.60,2.70,26.85,29.47,47.13,
01/01/2000,00:01:05.05,-119.63,-67.38,1461.91,-10.73,-22.74,-81.22,-5.70,2.40,27.00,29.75,47.13,
01/01/2000,00:01:05.05,255.86,-122.07,1562.99,-5.91,-8.05,-46.34,-6.75,2.10,25.80,29.66,47.13,
01/01/2000,00:01:05.05,200.68,-34.18,1577.64,-6.04,20.61,12.38,-4.65,0.90,26.25,29.61,47.13,
01/01/2000,00:01:05.05,-23.44,88.87,1350.10,-23.05,13.17,26.04,-4.80,3.00,26.40,29.56,47.14,
01/01/2000,00:01:05.05,38.09,138.67,1071.78,-30.98,-0.61,24.45,-4.95,1.65,26.55,29.66,47.14,
01/01/2000,00:01:05.05,52.73,156.74,844.24,-25.49,1.46,38.17,-5.85,0.30,28.20,29.56,47.14,
01/01/2000,00:01:05.05,-73.24,166.99,694.34,-20.79,7.13,47.68,-5.85,1.05,26.85,29.61,47.14,
01/01/2000,00:01:05.05,-229.00,163.57,597.17,-17.32,2.56,45.12,-6.00,0.45,27.30,29.61,47.14,
01/01/2000,00:01:05.05,-306.64,119.14,532.23,-24.02,-4.45,21.89,-6.60,-0.30,26.85,29.56,47.15,
01/01/2000,00:01:05.05,-210.45,99.61,406.25,-26.28,-5.30,8.66,-6.00,-2.10,28.50,29.61,47.15,
01/01/2000,00:01:05.05,-132.81,45.90,345.70,-15.24,-2.50,9.88,-7.20,-2.85,27.00,29.56,47.15,
01/01/2000,00:01:05.05,-146.00,24.41,392.58,-6.52,2.99,17.68,-5.40,-1.65,27.30,29.61,47.15,
01/01/2000,00:01:05.05,-160.16,-2.93,459.47,-3.35,-1.16,18.96,-6.30,-2.25,26.10,29.80,47.16,
01/01/2000,00:01:05.05,-217.29,26.86,694.82,3.23,-10.49,22.38,-6.60,-2.25,26.85,29.80,47.10,
01/01/2000,00:01:05.05,-287.60,57.62,848.63,9.88,-8.48,22.56,-5.70,-2.40,27.30,29.56,47.10,
01/01/2000,00:01:05.05,-380.86,69.82,983.89,4.70,-11.89,14.27,-5.10,-3.45,27.45,29.75,47.10,
01/01/2000,00:01:05.05,-377.93,19.53,1130.37,-2.80,-21.34,-5.06,-5.55,-3.00,27.90,29.37,47.10,
01/01/2000,00:01:05.05,-215.33,-32.71,1293.95,-2.44,-26.77,-8.96,-5.55,-3.00,26.85,29.75,47.11,
01/01/2000,00:01:05.05,-140.62,-27.83,1510.74,-1.77,-13.17,9.45,-6.45,-2.10,25.50,29.56,47.11,
01/01/2000,00:01:05.05,-227.05,-18.55,1727.05,-10.73,0.79,24.33,-7.20,-1.35,26.55,29.75,47.11,
01/01/2000,00:01:05.05,-230.47,-28.32,1593.75,-35.12,2.62,27.32,-6.75,-2.85,27.30,29.56,47.11,
01/01/2000,00:01:05.05,-71.78,51.27,1271.48,-40.73,-15.12,26.10,-5.70,-4.05,26.55,29.66,47.11,
